Folder: matl-db/Verification/Kinetics

File: NIST_TGA_10K_cat_devc.csv
s,[K],[mg],[W/g]
Time,"Temperature","Mass","Heat Flow"
 0.0000000E+000, 300.15, 5, 0.0000000E+000
 18.1, 302.628, 5, 0.226481
 36, 305.614, 5, 0.22958
 54, 308.613, 5, 0.227093
 72, 311.612, 5, 0.236361
 90.1, 314.624, 5, 0.235269
 108.1, 317.623, 5, 0.244762
 126.1, 320.623, 5, 0.246956
 144.1, 323.621, 5, 0.25552
 162.1, 326.62, 5, 0.25412
 180.1, 329.618, 5, 0.255519
 198.1, 332.619, 5, 0.264397
 216.1, 335.617, 5, 0.264352
 234.1, 338.615, 5, 0.273862
 252.1, 341.615, 5, 0.27635
 270.1, 344.614, 5, 0.284589
 288.1, 347.613, 5, 0.283267
 306, 350.605, 5, 0.287642
 324, 353.597, 5, 0.294354
 342, 356.596, 5, 0.294036
 360, 359.596, 5, 0.306181
 378, 362.595, 5, 0.303194
 396, 365.593, 5, 0.305123
 414, 368.593, 5, 0.318047
 432, 371.592, 5, 0.314447
 450, 374.59, 5, 0.323424
 468, 377.589, 5, 0.323023
 486, 380.589, 4.99999, 0.33545
 504, 383.588, 4.99999, 0.332408
 522, 386.586, 4.99998, 0.334185
 540, 389.586, 4.99998, 0.347329
 558, 392.585, 4.99997, 0.343679
 576, 395.583, 4.99995, 0.352542
 594, 398.582, 4.99993, 0.349969
 612, 401.583, 4.99989, 0.360039
 630, 404.582, 4.99984, 0.354648
 648, 407.581, 4.99977, 0.353978
 666, 410.581, 4.99967, 0.364979
 684, 413.581, 4.99952, 0.358908
 702, 416.58, 4.99932, 0.365506
 720, 419.579, 4.99903, 0.363086
 738, 422.58, 4.99863, 0.373541
 756, 425.579, 4.99808, 0.368524
 774, 428.577, 4.99731, 0.368435
 792, 431.578, 4.99627, 0.380258
 810, 434.577, 4.99485, 0.375196
 828, 437.576, 4.99295, 0.382881
 846, 440.574, 4.99042, 0.382109
 864, 443.575, 4.9871, 0.39446
 882, 446.574, 4.98281, 0.391547
 900, 449.571, 4.97736, 0.393659
 918, 452.571, 4.97063, 0.40779
 936, 455.57, 4.96254, 0.404514
 954, 458.569, 4.95321, 0.41284
 972, 461.567, 4.94295, 0.411026
 990, 464.569, 4.93237, 0.420006
 1008, 467.569, 4.92231, 0.41085
 1026, 470.569, 4.91369, 0.404235
 1044, 473.571, 4.90723, 0.408433
 1062, 476.572, 4.90313, 0.396054
 1080, 479.572, 4.90103, 0.397628
 1098, 482.572, 4.9002, 0.392699
 1116, 485.573, 4.89996, 0.402045
 1134, 488.572, 4.89989, 0.396391
 1152, 491.571, 4.89984, 0.395524
 1170, 494.571, 4.89979, 0.406637
 1188, 497.571, 4.89973, 0.400676
 1206.1, 500.579, 4.89965, 0.408015
 1224.1, 503.583, 4.89955, 0.404083
 1242.1, 506.582, 4.89942, 0.411005
 1260.1, 509.582, 4.89926, 0.413065
 1278.1, 512.582, 4.89906, 0.418078
 1296.1, 515.581, 4.8988, 0.414925
 1314.1, 518.579, 4.89849, 0.414239
 1332.1, 521.58, 4.89809, 0.422764
 1350.1, 524.579, 4.8976, 0.42061
 1368.1, 527.578, 4.897, 0.42846
 1386.1, 530.578, 4.89625, 0.431884
 1404.1, 533.577, 4.89532, 0.438292
 1422.1, 536.576, 4.89418, 0.436964
 1440.1, 539.573, 4.89278, 0.438445
 1458.1, 542.574, 4.89107, 0.449597
 1476.1, 545.572, 4.88897, 0.450465
 1494.1, 548.57, 4.88642, 0.461933
 1512.1, 551.569, 4.88331, 0.469832
 1530.1, 554.567, 4.87954, 0.481389
 1548.1, 557.564, 4.87497, 0.486102
 1566.1, 560.56, 4.86946, 0.494839
 1584.1, 563.558, 4.86281, 0.5145
 1602.1, 566.554, 4.85482, 0.525318
 1620.1, 569.549, 4.84522, 0.548237
 1638.1, 572.544, 4.83374, 0.569774
 1656.1, 575.539, 4.82003, 0.597012
 1674.1, 578.531, 4.8037, 0.619842
 1692.1, 581.522, 4.78429, 0.649449
 1710.1, 584.515, 4.7613, 0.693077
 1728.1, 587.504, 4.73412, 0.731274
 1746.1, 590.492, 4.70209, 0.785135
 1764.1, 593.479, 4.66446, 0.841639
 1782.1, 596.463, 4.62038, 0.908139
 1800.1, 599.445, 4.56894, 0.97459
 1818.1, 602.425, 4.50911, 1.05222
 1836.1, 605.405, 4.43982, 1.14802
 1854.1, 608.38, 4.35989, 1.24254
 1872.1, 611.353, 4.26813, 1.35602
 1890.1, 614.326, 4.16333, 1.47418
 1908.1, 617.295, 4.04429, 1.6034
 1926.1, 620.262, 3.90991, 1.73132
 1944.1, 623.228, 3.75926, 1.86655
 1962.1, 626.196, 3.59161, 2.01205
 1980.1, 629.162, 3.40663, 2.14534
 1998.1, 632.13, 3.20441, 2.28134
 2016.1, 635.102, 2.98565, 2.39843
 2034.1, 638.078, 2.75175, 2.50033
 2052.1, 641.06, 2.50496, 2.56577
 2070.1, 644.051, 2.24841, 2.5985
 2088.1, 647.055, 1.98621, 2.59544
 2106.1, 650.067, 1.72332, 2.53522
 2124.1, 653.094, 1.46547, 2.43071
 2142.1, 656.135, 1.21882, 2.26287
 2160.1, 659.186, 0.989552, 2.05615
 2178.1, 662.247, 0.783313, 1.79384
 2196.1, 665.314, 0.604604, 1.5117
 2214.1, 668.387, 0.456217, 1.2212
 2232.1, 671.453, 0.338833, 0.940211
 2250.1, 674.515, 0.25093, 0.689348
 2268.1, 677.567, 0.189051, 0.476851
 2286.1, 680.606, 0.148414, 0.32039
 2304.1, 683.633, 0.123726, 0.199122
 2322.1, 686.649, 0.109978, 0.12483
 2340.1, 689.663, 0.103032, 0.0814544
 2358.1, 692.666, 0.0998833, 0.059349
 2376.1, 695.67, 0.0986194, 0.0496473
 2394.1, 698.671, 0.0981762, 0.0450831
 2412.1, 701.672, 0.0980426, 0.0496457
 2430.1, 704.671, 0.0980086, 0.0435392
 2448.1, 707.669, 0.0980014, 0.0433606
 2466.1, 710.672, 0.0980002, 0.0431006
 2484.1, 713.67, 0.098, 0.0433597
 2502.1, 716.671, 0.098, 0.0439148
 2520.1, 719.672, 0.098, 0.043409
 2538.1, 722.672, 0.098, 0.0493866
 2556.1, 725.671, 0.098, 0.0436557
 2574.1, 728.669, 0.098, 0.0435759
 2592.1, 731.672, 0.098, 0.0433285
 2610.1, 734.67, 0.098, 0.0435964
 2628.1, 737.671, 0.098, 0.0441722
 2646.1, 740.672, 0.098, 0.043642
 2664.1, 743.672, 0.098, 0.0496437
 2682.1, 746.671, 0.098, 0.0438889
 2700.1, 749.669, 0.098, 0.043815
 2718.1, 752.672, 0.098, 0.043563
 2736.1, 755.67, 0.098, 0.0438339
 2754.1, 758.671, 0.098, 0.0444333
 2772.1, 761.672, 0.098, 0.0438717
 2790.1, 764.672, 0.098, 0.0499039
 2808.1, 767.671, 0.098, 0.0441204
 2826.1, 770.669, 0.098, 0.0440584
 2844.1, 773.672, 0.098, 0.0437785
 2862.1, 776.67, 0.098, 0.0440342
 2880.1, 779.671, 0.098, 0.0445946
 2898.1, 782.671, 0.098, 0.0440188
 2916.1, 785.672, 0.098, 0.0499897
 2934.1, 788.671, 0.098, 0.0441998
 2952.1, 791.669, 0.098, 0.0440656
 2970.1, 794.672, 0.098, 0.0437747
 2988.1, 797.67, 0.098, 0.0440342
 3006.1, 800.671, 0.098, 0.0445946
 3024.1, 803.671, 0.098, 0.0440188
 3042.1, 806.672, 0.098, 0.0499897
 3060.1, 809.671, 0.098, 0.0441998
 3078.1, 812.669, 0.098, 0.0440656
 3096.1, 815.672, 0.098, 0.0437747
 3114.1, 818.67, 0.098, 0.0440342
 3132.1, 821.671, 0.098, 0.0445946
 3150.1, 824.671, 0.098, 0.0440188
 3168.1, 827.672, 0.098, 0.0499897
 3186.1, 830.671, 0.098, 0.0441998
 3204.1, 833.669, 0.098, 0.0440656
 3222.1, 836.672, 0.098, 0.0437747
 3240.1, 839.67, 0.098, 0.0440342
 3258.1, 842.671, 0.098, 0.0445946
 3276.1, 845.671, 0.098, 0.0440188
 3294.1, 848.672, 0.098, 0.0499897
 3312.1, 851.671, 0.098, 0.0441998
 3330.1, 854.669, 0.098, 0.0440656
 3348.1, 857.672, 0.098, 0.0437747
 3366.1, 860.67, 0.098, 0.0440342
 3384.1, 863.671, 0.098, 0.0445946
 3402.1, 866.671, 0.098, 0.0440188
 3420.1, 869.672, 0.098, 0.0499897
 3438.1, 872.671, 0.098, 0.0441998
 3456.1, 875.669, 0.098, 0.0440656
 3474.1, 878.672, 0.098, 0.0437747
 3492.1, 881.67, 0.098, 0.0440342
 3510.1, 884.671, 0.098, 0.0445946
 3528.1, 887.671, 0.098, 0.0440188
 3546.1, 890.672, 0.098, 0.0499897
 3564.1, 893.671, 0.098, 0.0441998
 3582.1, 896.669, 0.098, 0.0440656
 3600.1, 899.672, 0.098, 0.0437747
 3618.1, 902.67, 0.098, 0.0440342
 3636.1, 905.671, 0.098, 0.0445946
 3654.1, 908.671, 0.098, 0.0440188
 3672.1, 911.672, 0.098, 0.0499897
 3690.1, 914.671, 0.098, 0.0441998
 3708.1, 917.669, 0.098, 0.0440656
 3726.1, 920.672, 0.098, 0.0437747
 3744.1, 923.67, 0.098, 0.0440342
 3762.1, 926.671, 0.098, 0.0445946
 3780.1, 929.671, 0.098, 0.0440188
 3798.1, 932.672, 0.098, 0.0499897
 3816.1, 935.671, 0.098, 0.0441998
 3834.1, 938.669, 0.098, 0.0440656
 3852.1, 941.672, 0.098, 0.0437747
 3870.1, 944.67, 0.098, 0.0440342
 3888.1, 947.671, 0.098, 0.0445946
 3906.1, 950.671, 0.098, 0.0440188
 3924.1, 953.672, 0.098, 0.0499897
 3942.1, 956.671, 0.098, 0.0441998
 3960.1, 959.669, 0.098, 0.0440656
 3978.1, 962.672, 0.098, 0.0437747
 3996.1, 965.67, 0.098, 0.0440342
 4014.1, 968.671, 0.098, 0.0445946
 4032.1, 971.671, 0.098, 0.0440188
 4050.1, 974.672, 0.098, 0.0499897
 4068.1, 977.671, 0.098, 0.0441998
 4086.1, 980.669, 0.098, 0.0440656
 4104.1, 983.672, 0.098, 0.0437747
 4122.1, 986.67, 0.098, 0.0440342
 4140.1, 989.671, 0.098, 0.0445946
 4158.1, 992.671, 0.098, 0.0440188
 4176.1, 995.672, 0.098, 0.0499897
 4194.1, 998.671, 0.098, 0.0441998
 4200, 999.663, 0.098, 0.0447246