Folder: matl-db/PMMA/Calibration_Results/NIST_FSRI/All_Props (part 6)

File: UMET_GP[NIST_FSRI]_Gasification_q50_R3_Mass.csv
s,kg/m2,,C,C,C,C,m,kg/m2,kg/m2,kg/m2,kg/m2/s
Time,"SD","MF","TW1","TSB1","TAL1","TB1","DX1","SD1","SD_11","SD_12","BR1"
 0.0000000E+000, 6.96099, 0.999927, 20.9, 20.9, 20.9, 20.9, 0.041011, 31.8153, 7.3692, 0.0000000E+000, 0.0000000E+000
 6.01, 6.92068, 0.994136, 138.259, 20.891, 20.9, 20.9, 0.0409788, 31.7767, 6.35391, 0.976711, 0.00726672
 12.01, 6.88571, 0.989113, 198.236, 21.2315, 20.9, 20.9, 0.0409493, 31.7413, 5.42021, 1.87493, 0.00507781
 18, 6.85792, 0.985121, 239.557, 23.0115, 20.9, 20.9, 0.040926, 31.7133, 4.68673, 2.58046, 0.00435684
 24, 6.83102, 0.981258, 269.72, 26.9156, 20.9, 20.9, 0.0409037, 31.6866, 4.04542, 3.19507, 0.00498553
 30, 6.78944, 0.975284, 285.974, 31.8967, 20.9, 20.9, 0.0408699, 31.646, 3.45806, 3.74184, 0.00891233
 36, 6.72325, 0.965776, 291.478, 39.018, 20.9, 20.9, 0.0408155, 31.5807, 2.899, 4.23562, 0.0125583
 42, 6.63985, 0.953797, 293.723, 46.4094, 20.9, 20.9, 0.0407465, 31.4979, 2.34828, 4.70351, 0.0148835
 48.01, 6.54515, 0.940193, 294.982, 53.9854, 20.9, 20.9, 0.0406678, 31.4034, 1.79731, 5.16, 0.0164389
 54.01, 6.44327, 0.925558, 295.834, 60.8718, 20.9, 20.9, 0.040583, 31.3018, 1.27121, 5.58444, 0.017335
 60.01, 6.33802, 0.910439, 296.478, 68.6065, 20.9, 20.9, 0.0404954, 31.1966, 0.819884, 5.93058, 0.0176481
 66.01, 6.23214, 0.895229, 296.986, 77.6033, 20.9, 20.9, 0.0404071, 31.0907, 0.486294, 6.15828, 0.017623
 72.01, 6.12653, 0.880059, 297.429, 89.0121, 20.9, 20.9, 0.0403191, 30.9851, 0.275021, 6.26395, 0.0176124
 78, 6.02043, 0.864819, 297.812, 99.6143, 20.9, 20.9, 0.0402309, 30.8792, 0.155574, 6.27751, 0.0177715
 84, 5.91282, 0.849361, 298.165, 110.111, 20.9, 20.9, 0.0401413, 30.7717, 0.0906843, 6.23487, 0.0180946
 90, 5.80292, 0.833573, 298.508, 121.504, 20.9001, 20.9, 0.0400498, 30.6619, 0.0551688, 6.16059, 0.0185262
 96, 5.6902, 0.817381, 298.833, 128.714, 20.9002, 20.9, 0.039956, 30.5493, 0.0350452, 6.06812, 0.019003
 102, 5.57457, 0.800772, 299.143, 139.243, 20.9003, 20.9, 0.0398597, 30.4338, 0.0231592, 5.9645, 0.0194957
 108, 5.45598, 0.783737, 299.443, 148.162, 20.9005, 20.9001, 0.039761, 30.3153, 0.015848, 5.85335, 0.0199934
 114, 5.3344, 0.766272, 299.746, 157.444, 20.9009, 20.9001, 0.0396598, 30.1939, 0.0111812, 5.73656, 0.0204991
 120, 5.20978, 0.748371, 300.033, 165.296, 20.9015, 20.9002, 0.039556, 30.0694, 0.00810273, 5.61514, 0.0209915
 126, 5.08227, 0.730054, 300.311, 172.824, 20.9024, 20.9003, 0.0394499, 29.942, 0.00601188, 5.48984, 0.0214731
 132, 4.95189, 0.711326, 300.582, 180.049, 20.9035, 20.9006, 0.0393413, 29.8117, 0.0045547, 5.36104, 0.0219418
 138, 4.81871, 0.692194, 300.851, 186.988, 20.9052, 20.9009, 0.0392304, 29.6786, 0.00351554, 5.22901, 0.0224113
 144, 4.68268, 0.672654, 301.128, 193.653, 20.9073, 20.9013, 0.0391172, 29.5427, 0.0027591, 5.09386, 0.0228846
 150, 4.54387, 0.652714, 301.391, 200.053, 20.91, 20.9019, 0.0390016, 29.404, 0.00219819, 4.95572, 0.0233437
 156, 4.40235, 0.632385, 301.649, 206.192, 20.9135, 20.9027, 0.0388838, 29.2626, 0.00177527, 4.81474, 0.0237888
 162.01, 4.25813, 0.611668, 301.909, 212.081, 20.9178, 20.9037, 0.0387635, 29.1183, 0.00145104, 4.6707, 0.024242
 168.01, 4.11123, 0.590567, 302.163, 217.698, 20.923, 20.9051, 0.0386411, 28.9715, 0.00119985, 4.52417, 0.0246834
 174.01, 3.96159, 0.569071, 302.434, 223.046, 20.9293, 20.9068, 0.0385165, 28.822, 0.00100238, 4.37483, 0.02515
 180.01, 3.80927, 0.547191, 302.686, 228.115, 20.9368, 20.9089, 0.0383897, 28.6697, 0.000845315, 4.22278, 0.0255861
 186.01, 3.65431, 0.524931, 302.942, 232.892, 20.9457, 20.9115, 0.0382606, 28.5149, 0.000719005, 4.06805, 0.0260284
 192.01, 3.49677, 0.502301, 303.193, 237.366, 20.9559, 20.9146, 0.0381294, 28.3574, 0.000616374, 3.91071, 0.0264503
 198.01, 3.3367, 0.479308, 303.447, 241.526, 20.9677, 20.9184, 0.0379961, 28.1975, 0.000532148, 3.75083, 0.0268669
 204.01, 3.1742, 0.455965, 303.709, 245.37, 20.9811, 20.9229, 0.0378608, 28.0351, 0.000462348, 3.58849, 0.0272703
 210.01, 3.00935, 0.432285, 303.963, 248.908, 20.9963, 20.9282, 0.0377235, 27.8703, 0.000403937, 3.42379, 0.0276432
 216.01, 2.84242, 0.408305, 304.212, 252.162, 21.0133, 20.9343, 0.0375844, 27.7035, 0.000354574, 3.25698, 0.0279711
 222.01, 2.67363, 0.384059, 304.463, 255.168, 21.0323, 20.9414, 0.0374439, 27.5347, 0.000312442, 3.08831, 0.0282672
 228.01, 2.50318, 0.359575, 304.71, 257.975, 21.0532, 20.9495, 0.0373019, 27.3644, 0.000276119, 2.91796, 0.0285162
 234.01, 2.33135, 0.334892, 304.961, 260.64, 21.0762, 20.9586, 0.0371587, 27.1926, 0.000244496, 2.74622, 0.0287395
 240.01, 2.15826, 0.310028, 305.22, 263.223, 21.1014, 20.969, 0.0370145, 27.0195, 0.000216696, 2.5732, 0.028938
 246.01, 1.98412, 0.285013, 305.471, 265.781, 21.1289, 20.9806, 0.0368694, 26.8454, 0.000192036, 2.39912, 0.0290991
 252.01, 1.80903, 0.259862, 305.724, 268.368, 21.1586, 20.9935, 0.0367235, 26.6704, 0.000169979, 2.22409, 0.0292441
 258.01, 1.63313, 0.234594, 305.98, 271.028, 21.1906, 21.0079, 0.036577, 26.4945, 0.000150106, 2.04824, 0.0293724
 264.01, 1.45645, 0.209215, 306.247, 273.817, 21.225, 21.0237, 0.0364298, 26.3179, 0.000132084, 1.87161, 0.0295012
 270.01, 1.27907, 0.183734, 306.519, 276.785, 21.2618, 21.041, 0.036282, 26.1405, 0.000115648, 1.69427, 0.0296175
 276.01, 1.10093, 0.158146, 306.818, 279.989, 21.3011, 21.06, 0.0361336, 25.9624, 0.000100581, 1.51618, 0.0297443
 282.01, 0.922137, 0.132462, 307.13, 283.493, 21.3429, 21.0806, 0.0359846, 25.7836, 8.67108e-05, 1.33742, 0.0298474
 288.01, 0.742758, 0.106695, 307.417, 285.445, 21.3871, 21.1029, 0.0358351, 25.6043, 7.38895e-05, 1.15807, 0.0299123
 294.01, 0.563132, 0.0808923, 307.527, 290.115, 21.4339, 21.127, 0.0356854, 25.4247, 6.19993e-05, 0.978469, 0.0299516
 300.01, 0.383522, 0.0550918, 307.588, 297.504, 21.4832, 21.1529, 0.0355358, 25.245, 5.09209e-05, 0.798852, 0.0298795
 306.01, 0.205201, 0.0294766, 307.391, 303.705, 21.535, 21.1807, 0.0353871, 25.0666, 4.05358e-05, 0.620432, 0.0294257
 312.01, 0.02986, 0.0042893, 309.321, 309.605, 21.5893, 21.2105, 0.0352408, 24.8911, 3.06106e-05, 0.444981, 0.0289298
 318.01,-0.139127,-0.0199852, 313.458, 315.861, 21.6462, 21.2422, 0.0350997, 24.7218, 2.07665e-05, 0.275679, 0.027589
 324.01,-0.293876,-0.0422145, 323.19, 324.161, 21.7056, 21.2758, 0.0349702, 24.5664, 1.06891e-05, 0.120239, 0.0247071
 330.01,-0.40821,-0.0586382, 456.8, 476.744, 21.7675, 21.3115, 0.03487, 24.4461, 0.0000000E+000, 0.0000000E+000, 0.0000000E+000
 336.01,-0.40821,-0.0586382, 541.77, 562.986, 21.8319, 21.3493, 0.03487, 24.4461, 0.0000000E+000, 0.0000000E+000, 0.0000000E+000
 342.01,-0.40821,-0.0586382, 560.466, 581.79, 21.8988, 21.3891, 0.03487, 24.4461, 0.0000000E+000, 0.0000000E+000, 0.0000000E+000
 348.01,-0.40821,-0.0586382, 570.205, 591.589, 21.9682, 21.4311, 0.03487, 24.4461, 0.0000000E+000, 0.0000000E+000, 0.0000000E+000
 354.01,-0.40821,-0.0586382, 576.551, 597.96, 22.0401, 21.4751, 0.03487, 24.4461, 0.0000000E+000, 0.0000000E+000, 0.0000000E+000
 360.01,-0.40821,-0.0586382, 581.099, 602.542, 22.1145, 21.5213, 0.03487, 24.4461, 0.0000000E+000, 0.0000000E+000, 0.0000000E+000
 366.01,-0.40821,-0.0586382, 584.618, 606.065, 22.1913, 21.5696, 0.03487, 24.4461, 0.0000000E+000, 0.0000000E+000, 0.0000000E+000
 372.01,-0.40821,-0.0586382, 587.435, 608.9, 22.2707, 21.6201, 0.03487, 24.4461, 0.0000000E+000, 0.0000000E+000, 0.0000000E+000
 378.01,-0.40821,-0.0586382, 589.758, 611.237, 22.3526, 21.6728, 0.03487, 24.4461, 0.0000000E+000, 0.0000000E+000, 0.0000000E+000
 384.01,-0.40821,-0.0586382, 591.728, 613.217, 22.4373, 21.7278, 0.03487, 24.4461, 0.0000000E+000, 0.0000000E+000, 0.0000000E+000
 390.01,-0.40821,-0.0586382, 593.438, 614.927, 22.525, 21.7849, 0.03487, 24.4461, 0.0000000E+000, 0.0000000E+000, 0.0000000E+000
 396.01,-0.40821,-0.0586382, 594.908, 616.42, 22.616, 21.8444, 0.03487, 24.4461, 0.0000000E+000, 0.0000000E+000, 0.0000000E+000
 402.01,-0.40821,-0.0586382, 596.216, 617.745, 22.7109, 21.9063, 0.03487, 24.4461, 0.0000000E+000, 0.0000000E+000, 0.0000000E+000
 408.01,-0.40821,-0.0586382, 597.416, 618.926, 22.8101, 21.9707, 0.03487, 24.4461, 0.0000000E+000, 0.0000000E+000, 0.0000000E+000
 414.01,-0.40821,-0.0586382, 598.473, 619.99, 22.9145, 22.0379, 0.03487, 24.4461, 0.0000000E+000, 0.0000000E+000, 0.0000000E+000
 420.01,-0.40821,-0.0586382, 599.437, 620.958, 23.0246, 22.1079, 0.03487, 24.4461, 0.0000000E+000, 0.0000000E+000, 0.0000000E+000
 426.01,-0.40821,-0.0586382, 600.305, 621.845, 23.1412, 22.1811, 0.03487, 24.4461, 0.0000000E+000, 0.0000000E+000, 0.0000000E+000
 432.01,-0.40821,-0.0586382, 601.109, 622.66, 23.2649, 22.2577, 0.03487, 24.4461, 0.0000000E+000, 0.0000000E+000, 0.0000000E+000
 438.01,-0.40821,-0.0586382, 601.864, 623.411, 23.3964, 22.3381, 0.03487, 24.4461, 0.0000000E+000, 0.0000000E+000, 0.0000000E+000
 444.01,-0.40821,-0.0586382, 602.564, 624.105, 23.5363, 22.4226, 0.03487, 24.4461, 0.0000000E+000, 0.0000000E+000, 0.0000000E+000
 450.01,-0.40821,-0.0586382, 603.192, 624.756, 23.685, 22.5115, 0.03487, 24.4461, 0.0000000E+000, 0.0000000E+000, 0.0000000E+000
 456.01,-0.40821,-0.0586382, 603.806, 625.361, 23.8429, 22.6052, 0.03487, 24.4461, 0.0000000E+000, 0.0000000E+000, 0.0000000E+000
 462.01,-0.40821,-0.0586382, 604.381, 625.926, 24.0104, 22.704, 0.03487, 24.4461, 0.0000000E+000, 0.0000000E+000, 0.0000000E+000
 468.01,-0.40821,-0.0586382, 604.897, 626.461, 24.1876, 22.8083, 0.03487, 24.4461, 0.0000000E+000, 0.0000000E+000, 0.0000000E+000
 474.01,-0.40821,-0.0586382, 605.411, 626.962, 24.3749, 22.9185, 0.03487, 24.4461, 0.0000000E+000, 0.0000000E+000, 0.0000000E+000
 480.01,-0.40821,-0.0586382, 605.872, 627.441, 24.5722, 23.0347, 0.03487, 24.4461, 0.0000000E+000, 0.0000000E+000, 0.0000000E+000
 486.01,-0.40821,-0.0586382, 606.334, 627.888, 24.7797, 23.1574, 0.03487, 24.4461, 0.0000000E+000, 0.0000000E+000, 0.0000000E+000
 492.01,-0.40821,-0.0586382, 606.747, 628.315, 24.9975, 23.2868, 0.03487, 24.4461, 0.0000000E+000, 0.0000000E+000, 0.0000000E+000
 498.01,-0.40821,-0.0586382, 607.141, 628.724, 25.2254, 23.4232, 0.03487, 24.4461, 0.0000000E+000, 0.0000000E+000, 0.0000000E+000
 500,-0.40821,-0.0586382, 607.286, 628.854, 25.3034, 23.4701, 0.03487, 24.4461, 0.0000000E+000, 0.0000000E+000, 0.0000000E+000

File: UMET_TK[NIST_FSRI]_Gasification_q50_R3_Mass.csv
s,kg/m2,,C,C,C,C,m,kg/m2,kg/m2,kg/m2,kg/m2/s
Time,"SD","MF","TW1","TSB1","TAL1","TB1","DX1","SD1","SD_11","SD_12","BR1"
 0.0000000E+000, 6.96094, 0.99992, 20.9, 20.9, 20.9, 20.9, 0.04099, 31.8153, 7.36915, 0.0000000E+000, 0.0000000E+000
 6.01, 6.96094, 0.999919, 149.946, 20.9073, 20.9, 20.9, 0.04099, 31.8153, 7.36903, 0.000116685, 4.04103e-06
 12.01, 6.96074, 0.999891, 209.57, 21.334, 20.9, 20.9, 0.0409898, 31.8151, 7.3643, 0.0046707, 8.07813e-05
 18, 6.95935, 0.999692, 249.903, 23.6038, 20.9, 20.9, 0.0409888, 31.8138, 7.33, 0.037664, 0.000410547
 24, 6.95485, 0.999045, 279.941, 28.0196, 20.9, 20.9, 0.0409852, 31.8095, 7.21616, 0.147171, 0.00107656
 30, 6.94596, 0.997767, 303.449, 34.7923, 20.9, 20.9, 0.0409779, 31.8007, 6.98939, 0.365232, 0.00179823
 36, 6.93353, 0.995982, 322.661, 43.3402, 20.9, 20.9, 0.0409677, 31.7884, 6.68588, 0.656429, 0.0022661
 42, 6.91842, 0.993812, 338.353, 52.9889, 20.9, 20.9, 0.0409553, 31.7735, 6.38032, 0.947008, 0.00278305
 48.01, 6.89862, 0.990967, 350.224, 63.0721, 20.9, 20.9, 0.040939, 31.7539, 6.10804, 1.19971, 0.00382713
 54.01, 6.87101, 0.987001, 358.305, 73.3689, 20.9, 20.9, 0.0409164, 31.7266, 5.8645, 1.41599, 0.00529138
 60.01, 6.83433, 0.981732, 363.503, 84.342, 20.9, 20.9, 0.0408862, 31.6903, 5.63849, 1.60568, 0.00678929
 66.01, 6.78921, 0.975251, 366.871, 95.3852, 20.9, 20.9, 0.040849, 31.6455, 5.42441, 1.77496, 0.00810685
 72.01, 6.73686, 0.96773, 369.166, 106.043, 20.9, 20.9, 0.0408057, 31.5934, 5.21885, 1.92843, 0.00921924
 78, 6.67839, 0.959332, 370.834, 115.787, 20.9, 20.9, 0.0407575, 31.5353, 5.01928, 2.06986, 0.0101645
 84, 6.61468, 0.95018, 372.117, 126.469, 20.9, 20.9, 0.0407047, 31.4718, 4.82277, 2.20287, 0.0109836
 90, 6.54636, 0.940366, 373.154, 136.874, 20.9001, 20.9, 0.0406481, 31.4036, 4.62774, 2.32975, 0.0117124
 96, 6.47389, 0.929956, 374.028, 146.394, 20.9002, 20.9, 0.0405881, 31.3313, 4.43251, 2.45268, 0.012375
 102, 6.39762, 0.919, 374.787, 154.583, 20.9004, 20.9, 0.0405249, 31.2552, 4.23558, 2.5735, 0.0129889
 108, 6.31781, 0.907536, 375.453, 164.356, 20.9007, 20.9001, 0.0404587, 31.1755, 4.03566, 2.69375, 0.01356
 114, 6.23466, 0.895592, 376.058, 172.402, 20.9012, 20.9001, 0.0403898, 31.0925, 3.83166, 2.81474, 0.0141031
 120, 6.14835, 0.883194, 376.616, 179.691, 20.9019, 20.9003, 0.0403182, 31.0063, 3.6227, 2.93752, 0.0146221
 126, 6.05899, 0.870357, 377.127, 188.671, 20.903, 20.9004, 0.0402441, 30.9171, 3.40812, 3.06286, 0.0151173
 132, 5.96674, 0.857105, 377.609, 194.896, 20.9045, 20.9007, 0.0401676, 30.825, 3.18759, 3.19126, 0.0155929
 138, 5.87166, 0.843447, 378.07, 202.857, 20.9066, 20.9011, 0.0400887, 30.73, 2.96111, 3.32277, 0.0160543
 144, 5.77391, 0.829406, 378.498, 209.715, 20.9092, 20.9016, 0.0400076, 30.6324, 2.72913, 3.45711, 0.0164887
 150, 5.6736, 0.814996, 378.923, 217.532, 20.9127, 20.9024, 0.0399244, 30.5322, 2.49258, 3.59346, 0.0169109
 156, 5.57083, 0.800233, 379.321, 222.238, 20.917, 20.9034, 0.0398391, 30.4295, 2.2529, 3.73046, 0.0173058
 162.01, 5.46578, 0.785144, 379.703, 227.957, 20.9224, 20.9047, 0.0397518, 30.3244, 2.01168, 3.86655, 0.0176757
 168.01, 5.35858, 0.769745, 380.088, 236.716, 20.9289, 20.9064, 0.0396628, 30.2172, 1.77227, 3.99885, 0.0180271
 174.01, 5.24936, 0.754056, 380.451, 242.442, 20.9366, 20.9085, 0.0395722, 30.1081, 1.53725, 4.12473, 0.0183448
 180.01, 5.13835, 0.738109, 380.803, 248.013, 20.9457, 20.9112, 0.0394801, 29.9971, 1.30996, 4.24107, 0.0186343
 186.01, 5.02568, 0.721925, 381.156, 253.452, 20.9564, 20.9144, 0.0393866, 29.8845, 1.09397, 4.34446, 0.0188995
 192.01, 4.91146, 0.705517, 381.502, 258.78, 20.9687, 20.9182, 0.0392917, 29.7704, 0.892825, 4.43144, 0.0191454
 198.01, 4.79587, 0.688914, 381.833, 264.011, 20.9827, 20.9228, 0.0391958, 29.6549, 0.70983, 4.4989, 0.0193641
 204.01, 4.67902, 0.672129, 382.158, 269.157, 20.9986, 20.9283, 0.0390988, 29.538, 0.547775, 4.54415, 0.0195668
 210.01, 4.56096, 0.655168, 382.499, 274.209, 21.0165, 20.9346, 0.0390008, 29.42, 0.408661, 4.56525, 0.0197774
 216.01, 4.44164, 0.63803, 382.817, 279.162, 21.0364, 20.942, 0.0389017, 29.3008, 0.293455, 4.56119, 0.0199767
 222.01, 4.32109, 0.620713, 383.135, 284.007, 21.0585, 20.9504, 0.0388017, 29.1803, 0.201886, 4.53226, 0.0201917
 228.01, 4.19922, 0.603206, 383.445, 288.719, 21.0828, 20.96, 0.0387005, 29.0584, 0.132417, 4.47991, 0.0204186
 234.01, 4.07585, 0.585485, 383.775, 293.265, 21.1094, 20.9708, 0.0385981, 28.9351, 0.0824085, 4.40662, 0.0206855
 240.01, 3.95085, 0.567529, 384.084, 297.623, 21.1383, 20.983, 0.0384943, 28.8102, 0.0484405, 4.31566, 0.0209634
 246.01, 3.8241, 0.549322, 384.391, 301.769, 21.1698, 20.9965, 0.0383891, 28.6835, 0.0267831, 4.21064, 0.0212603
 252.01, 3.69554, 0.530854, 384.694, 305.686, 21.2037, 21.0116, 0.0382824, 28.5551, 0.0138801, 4.09505, 0.0215713
 258.01, 3.56509, 0.512115, 385.006, 309.37, 21.2402, 21.0282, 0.0381741, 28.4247, 0.006723, 3.97183, 0.0218893
 264.01, 3.43275, 0.493105, 385.307, 312.829, 21.2792, 21.0465, 0.0380643, 28.2924, 0.00303652, 3.84325, 0.0221988
 270.01, 3.29862, 0.473838, 385.596, 316.075, 21.3209, 21.0665, 0.037953, 28.1583, 0.00127649, 3.71095, 0.0224844
 276.01, 3.16285, 0.454335, 385.885, 319.132, 21.3654, 21.0883, 0.0378403, 28.0226, 0.000498638, 3.57602, 0.0227511
 282.01, 3.02555, 0.434612, 386.167, 322.029, 21.4125, 21.1119, 0.0377263, 27.8854, 0.000180708, 3.4391, 0.0229881
 288.01, 2.88688, 0.414692, 386.466, 324.795, 21.4623, 21.1374, 0.0376112, 27.7468, 6.06422e-05, 3.3006, 0.0232159
 294.01, 2.74695, 0.394591, 386.745, 327.463, 21.515, 21.1649, 0.037495, 27.6069, 1.8799e-05, 3.16075, 0.0234073
 300.01, 2.60594, 0.374336, 387.027, 330.065, 21.5704, 21.1944, 0.0373779, 27.4659, 5.36683e-06, 3.01981, 0.0235802
 306.01, 2.46397, 0.353942, 387.305, 332.631, 21.6287, 21.226, 0.03726, 27.324, 1.40539e-06, 2.87787, 0.0237306
 312.01, 2.32114, 0.333426, 387.588, 335.19, 21.6898, 21.2597, 0.0371415, 27.1812, 3.35857e-07, 2.73508, 0.0238667
 318.01, 2.17751, 0.312793, 387.886, 337.77, 21.7537, 21.2956, 0.0370222, 27.0376, 7.27825e-08, 2.59148, 0.0239977
 324.01, 2.03315, 0.292056, 388.181, 340.396, 21.8206, 21.3338, 0.0369023, 26.8933, 1.41905e-08, 2.44714, 0.0241144
 330.01, 1.88811, 0.271221, 388.481, 343.095, 21.8903, 21.3741, 0.0367819, 26.7482, 2.46544e-09, 2.30213, 0.024221
 336.01, 1.74245, 0.250299, 388.793, 345.89, 21.9629, 21.4168, 0.036661, 26.6026, 3.7728e-10, 2.1565, 0.0243234
 342.01, 1.59619, 0.229288, 389.123, 348.808, 22.0384, 21.4618, 0.0365395, 26.4564, 5.01406e-11, 2.01026, 0.0244223
 348.01, 1.44933, 0.208192, 389.481, 351.877, 22.1168, 21.5092, 0.0364176, 26.3095, 5.68891e-12, 1.86343, 0.0245231
 354.01, 1.3019, 0.187014, 389.853, 355.129, 22.1981, 21.559, 0.0362951, 26.1621, 5.39626e-13, 1.71601, 0.0246126
 360.01, 1.15394, 0.165761, 390.267, 358.598, 22.2822, 21.6112, 0.0361723, 26.0142, 4.17071e-14, 1.56808, 0.0246992
 366.01, 1.00546, 0.144432, 390.739, 362.329, 22.3693, 21.6658, 0.036049, 25.8657, 2.54385e-15, 1.41962, 0.0247824
 372.01, 0.856524, 0.123037, 391.282, 366.374, 22.4592, 21.7229, 0.0359253, 25.7168, 1.17779e-16, 1.2707, 0.0248538
 378.01, 0.707208, 0.101588, 391.946, 370.793, 22.552, 21.7826, 0.0358013, 25.5675, 4.1547e-18, 1.1214, 0.0249127
 384.01, 0.557759, 0.0801205, 392.454, 373.305, 22.6477, 21.8447, 0.0356772, 25.4181, 3.78535e-19, 0.971945, 0.024898
 390.01, 0.408484, 0.0586776, 393.06, 380.999, 22.7462, 21.9093, 0.0355532, 25.2688, 3.01035e-19, 0.822655, 0.0248429
 396.01, 0.260008, 0.0373494, 394.042, 388.106, 22.8475, 21.9765, 0.0354299, 25.1202, 2.46511e-19, 0.674129, 0.0246328
 402.01, 0.113141, 0.0162525, 396.507, 394.632, 22.9516, 22.0462, 0.0353078, 24.9733, 1.92603e-19, 0.527181, 0.0242951
 408.01,-0.0301617,-0.00433265, 399.983, 401.651, 23.0586, 22.1184, 0.0351886, 24.8298, 1.39948e-19, 0.383654, 0.0233833
 414.01,-0.166171,-0.0238699, 406.49, 409.372, 23.1683, 22.1932, 0.0350754, 24.6934, 9.00564e-20, 0.247284, 0.0218694
 420.01,-0.288697,-0.0414706, 418.156, 419.469, 23.2807, 22.2706, 0.0349731, 24.5702, 4.50711e-20, 0.124095, 0.0191347
 426.01,-0.388232,-0.0557685, 446.531, 446.794, 23.3959, 22.3505, 0.0348892, 24.4693, 8.38792e-21, 0.0231453, 0.013358
 432.01,-0.40821,-0.0586382, 554.415, 575.709, 23.5138, 22.4329, 0.03487, 24.4461, 0.0000000E+000, 0.0000000E+000, 0.0000000E+000
 438.01,-0.40821,-0.0586382, 571.43, 592.815, 23.6344, 22.518, 0.03487, 24.4461, 0.0000000E+000, 0.0000000E+000, 0.0000000E+000
 444.01,-0.40821,-0.0586382, 579.394, 600.824, 23.7578, 22.6055, 0.03487, 24.4461, 0.0000000E+000, 0.0000000E+000, 0.0000000E+000
 450.01,-0.40821,-0.0586382, 584.412, 605.867, 23.8838, 22.6957, 0.03487, 24.4461, 0.0000000E+000, 0.0000000E+000, 0.0000000E+000
 456.01,-0.40821,-0.0586382, 588, 609.478, 24.0127, 22.7884, 0.03487, 24.4461, 0.0000000E+000, 0.0000000E+000, 0.0000000E+000
 462.01,-0.40821,-0.0586382, 590.759, 612.244, 24.1442, 22.8836, 0.03487, 24.4461, 0.0000000E+000, 0.0000000E+000, 0.0000000E+000
 468.01,-0.40821,-0.0586382, 592.961, 614.464, 24.2786, 22.9814, 0.03487, 24.4461, 0.0000000E+000, 0.0000000E+000, 0.0000000E+000
 474.01,-0.40821,-0.0586382, 594.803, 616.311, 24.416, 23.0818, 0.03487, 24.4461, 0.0000000E+000, 0.0000000E+000, 0.0000000E+000
 480.01,-0.40821,-0.0586382, 596.367, 617.878, 24.5563, 23.1847, 0.03487, 24.4461, 0.0000000E+000, 0.0000000E+000, 0.0000000E+000
 486.01,-0.40821,-0.0586382, 597.711, 619.232, 24.7, 23.2903, 0.03487, 24.4461, 0.0000000E+000, 0.0000000E+000, 0.0000000E+000
 492.01,-0.40821,-0.0586382, 598.891, 620.423, 24.8473, 23.3986, 0.03487, 24.4461, 0.0000000E+000, 0.0000000E+000, 0.0000000E+000
 498.01,-0.40821,-0.0586382, 599.945, 621.485, 24.9987, 23.5096, 0.03487, 24.4461, 0.0000000E+000, 0.0000000E+000, 0.0000000E+000
 500,-0.40821,-0.0586382, 600.259, 621.81, 25.05, 23.5471, 0.03487, 24.4461, 0.0000000E+000, 0.0000000E+000, 0.0000000E+000