Folder: matl-db/PMMA/Calibration_Results/NIST_FSRI/All_Props (part 5)

File: NIST[NIST_FSRI]_Gasification_q50_R3_Mass.csv
s,kg/m2,,C,C,C,C,m,kg/m2,kg/m2,kg/m2/s
Time,"SD","MF","TW1","TSB1","TAL1","TB1","DX1","SD1","SD_11","BR1"
 0.0000000E+000, 6.96179, 1.00004, 20.9, 20.9, 20.9, 20.9, 0.04157, 31.8161, 7.37, 0.0000000E+000
 5.51, 6.96179, 1.00004, 178.749, 20.9, 20.9, 20.9, 0.04157, 31.8161, 7.37, 2.31991e-11
 11.01, 6.96179, 1.00004, 237.257, 20.9002, 20.9, 20.9, 0.04157, 31.8161, 7.37, 1.95745e-08
 16.51, 6.96179, 1.00004, 277.88, 20.9094, 20.9, 20.9, 0.04157, 31.8161, 7.37, 8.76403e-07
 22, 6.96176, 1.00004, 309.072, 20.9908, 20.9, 20.9, 0.04157, 31.8161, 7.36997, 1.12059e-05
 27.5, 6.96156, 1.00001, 334.221, 21.2894, 20.9, 20.9, 0.0415698, 31.8159, 7.36979, 7.21242e-05
 33, 6.9606, 0.999871, 354.766, 21.9774, 20.9, 20.9, 0.041569, 31.815, 7.36889, 0.000295952
 38.5, 6.95746, 0.99942, 371.246, 23.1945, 20.9, 20.9, 0.0415663, 31.812, 7.36589, 0.000863909
 44.01, 6.94982, 0.998322, 383.777, 25.0276, 20.9, 20.9, 0.0415595, 31.8046, 7.35849, 0.00189291
 49.51, 6.93542, 0.996253, 392.607, 27.5008, 20.9, 20.9, 0.0415467, 31.7905, 7.34441, 0.00325392
 55.01, 6.91323, 0.993066, 398.536, 30.6071, 20.9, 20.9, 0.0415269, 31.7687, 7.32257, 0.00467414
 60.51, 6.88358, 0.988806, 402.492, 34.3088, 20.9, 20.9, 0.0415002, 31.7393, 7.29322, 0.00596236
 66.01, 6.8474, 0.983609, 405.205, 38.5509, 20.9, 20.9, 0.0414676, 31.7034, 7.25731, 0.0070629
 71.51, 6.8057, 0.97762, 407.14, 43.268, 20.9, 20.9, 0.0414298, 31.662, 7.21583, 0.00798888
 77, 6.75935, 0.970962, 408.578, 48.3809, 20.9, 20.9, 0.041388, 31.6159, 7.16976, 0.00877249
 82.5, 6.70904, 0.963735, 409.683, 53.8391, 20.9, 20.9, 0.0413424, 31.5657, 7.11961, 0.00944398
 88, 6.65531, 0.956016, 410.56, 59.5686, 20.9, 20.9, 0.0412937, 31.5121, 7.06602, 0.0100282
 93.5, 6.59857, 0.947866, 411.274, 65.5109, 20.9, 20.9, 0.0412422, 31.4555, 7.00941, 0.010545
 99, 6.53916, 0.939331, 411.869, 71.6152, 20.9, 20.9, 0.0411883, 31.3962, 6.95012, 0.0110089
 104.5, 6.47734, 0.930451, 412.371, 77.8385, 20.9, 20.9, 0.0411322, 31.3345, 6.88841, 0.0114286
 110, 6.4133, 0.921253, 412.798, 84.1456, 20.9, 20.9, 0.0410741, 31.2706, 6.82447, 0.0118131
 115.5, 6.34723, 0.911762, 413.182, 90.5076, 20.9001, 20.9, 0.0410141, 31.2046, 6.75849, 0.0121766
 121, 6.27925, 0.901997, 413.508, 96.9018, 20.9001, 20.9, 0.0409524, 31.1367, 6.69059, 0.0125104
 126.5, 6.20945, 0.89197, 413.817, 103.31, 20.9002, 20.9, 0.040889, 31.067, 6.62087, 0.012838
 132, 6.13792, 0.881695, 414.081, 109.719, 20.9003, 20.9, 0.040824, 30.9955, 6.54942, 0.0131422
 137.5, 6.06472, 0.87118, 414.34, 116.118, 20.9005, 20.9001, 0.0407575, 30.9224, 6.47629, 0.0134476
 143, 5.98989, 0.860431, 414.562, 122.499, 20.9008, 20.9001, 0.0406896, 30.8477, 6.40154, 0.0137339
 148.5, 5.91349, 0.849456, 414.786, 128.856, 20.9012, 20.9002, 0.0406202, 30.7713, 6.3252, 0.0140251
 154, 5.8355, 0.838253, 414.983, 135.186, 20.9017, 20.9003, 0.0405494, 30.6934, 6.24729, 0.0143044
 159.51, 5.756, 0.826833, 415.171, 141.491, 20.9024, 20.9004, 0.0404771, 30.6139, 6.16779, 0.0145816
 165.01, 5.67494, 0.815189, 415.359, 147.766, 20.9034, 20.9006, 0.0404034, 30.5328, 6.08671, 0.0148651
 170.51, 5.59237, 0.803328, 415.522, 154.002, 20.9045, 20.9008, 0.0403284, 30.4503, 6.00421, 0.015136
 176.01, 5.50827, 0.791247, 415.698, 160.207, 20.9059, 20.9011, 0.040252, 30.3663, 5.92018, 0.0154203
 181.51, 5.42263, 0.778945, 415.85, 166.379, 20.9077, 20.9016, 0.0401742, 30.2807, 5.83461, 0.0156949
 187.01, 5.33548, 0.766427, 416.003, 172.52, 20.9099, 20.9021, 0.040095, 30.1937, 5.74753, 0.0159741
 192.51, 5.24676, 0.753683, 416.153, 178.629, 20.9125, 20.9027, 0.0400144, 30.105, 5.65887, 0.0162597
 198.01, 5.1565, 0.740717, 416.285, 184.709, 20.9156, 20.9035, 0.0399324, 30.0148, 5.56868, 0.0165364
 203.51, 5.06467, 0.727526, 416.434, 190.759, 20.9192, 20.9045, 0.039849, 29.923, 5.47692, 0.0168323
 209.01, 4.97123, 0.714103, 416.561, 196.781, 20.9234, 20.9058, 0.0397641, 29.8297, 5.38355, 0.0171195
 214.51, 4.87621, 0.700454, 416.682, 202.774, 20.9282, 20.9072, 0.0396778, 29.7347, 5.2886, 0.0174085
 220.01, 4.77952, 0.686565, 416.817, 208.74, 20.9338, 20.9089, 0.03959, 29.6381, 5.19198, 0.0177152
 225.51, 4.68118, 0.672439, 416.933, 214.679, 20.9401, 20.9109, 0.0395007, 29.5398, 5.09372, 0.018015
 231.01, 4.58117, 0.658072, 417.063, 220.591, 20.9472, 20.9133, 0.0394098, 29.4399, 4.99378, 0.0183336
 236.51, 4.4794, 0.643453, 417.173, 226.476, 20.9551, 20.916, 0.0393174, 29.3382, 4.89209, 0.018646
 242.01, 4.37591, 0.628587, 417.275, 232.332, 20.964, 20.9191, 0.0392233, 29.2348, 4.78867, 0.0189597
 247.51, 4.27059, 0.613458, 417.399, 238.16, 20.9739, 20.9227, 0.0391277, 29.1295, 4.68343, 0.0193
 253.01, 4.16344, 0.598066, 417.5, 243.956, 20.9847, 20.9267, 0.0390303, 29.0225, 4.57636, 0.019633
 258.51, 4.05442, 0.582406, 417.616, 249.719, 20.9966, 20.9313, 0.0389313, 28.9135, 4.46743, 0.019988
 264.01, 3.94343, 0.566463, 417.712, 255.445, 21.0096, 20.9364, 0.0388305, 28.8026, 4.35653, 0.0203394
 269.51, 3.83049, 0.550239, 417.804, 261.13, 21.0238, 20.9421, 0.0387279, 28.6898, 4.24367, 0.020698
 275.01, 3.71546, 0.533716, 417.916, 266.767, 21.0391, 20.9484, 0.0386234, 28.5749, 4.12873, 0.0210865
 280.51, 3.59834, 0.516892, 418.006, 272.347, 21.0557, 20.9555, 0.038517, 28.4578, 4.01171, 0.0214705
 286.01, 3.47905, 0.499755, 418.112, 277.845, 21.0735, 20.9632, 0.0384086, 28.3386, 3.89251, 0.0218807
 291.51, 3.35749, 0.482294, 418.196, 283.265, 21.0927, 20.9717, 0.0382982, 28.2172, 3.77105, 0.0222877
 297.01, 3.23365, 0.464505, 418.29, 288.599, 21.1132, 20.981, 0.0381857, 28.0934, 3.64732, 0.0227139
 302.51, 3.10741, 0.44637, 418.373, 293.826, 21.1351, 20.9911, 0.0380711, 27.9673, 3.52117, 0.0231481
 308.01, 2.97877, 0.427892, 418.451, 298.928, 21.1584, 21.002, 0.0379542, 27.8388, 3.39264, 0.0235889
 313.51, 2.84763, 0.409055, 418.543, 303.898, 21.1831, 21.0139, 0.0378351, 27.7077, 3.26162, 0.0240501
 319.01, 2.71402, 0.389862, 418.613, 308.725, 21.2093, 21.0267, 0.0377137, 27.5742, 3.12811, 0.0244981
 324.51, 2.57792, 0.370311, 418.696, 313.396, 21.237, 21.0405, 0.0375901, 27.4382, 2.99212, 0.0249577
 330.01, 2.43934, 0.350404, 418.758, 317.903, 21.2662, 21.0553, 0.0374642, 27.2998, 2.85364, 0.0253953
 335.51, 2.29837, 0.330154, 418.833, 322.257, 21.297, 21.0711, 0.0373362, 27.1589, 2.71278, 0.0258315
 341.01, 2.15506, 0.309568, 418.89, 326.467, 21.3294, 21.088, 0.037206, 27.0157, 2.56956, 0.0262377
 346.51, 2.00957, 0.288669, 418.958, 330.555, 21.3633, 21.1061, 0.0370738, 26.8703, 2.42417, 0.0266284
 352.01, 1.862, 0.267471, 419.019, 334.554, 21.3989, 21.1252, 0.0369397, 26.7228, 2.27669, 0.0269893
 357.51, 1.71254, 0.246002, 419.085, 338.505, 21.4361, 21.1455, 0.0368039, 26.5734, 2.12731, 0.027321
 363.01, 1.56129, 0.224276, 419.167, 342.462, 21.475, 21.167, 0.0366665, 26.4223, 1.97614, 0.0276361
 368.51, 1.40843, 0.202317, 419.255, 346.482, 21.5155, 21.1898, 0.0365276, 26.2695, 1.82334, 0.0279208
 374.01, 1.254, 0.180134, 419.377, 350.626, 21.5577, 21.2138, 0.0363873, 26.1151, 1.66898, 0.0281995
 379.51, 1.09813, 0.157743, 419.531, 354.966, 21.6017, 21.239, 0.0362456, 25.9593, 1.51317, 0.0284629
 385.01, 0.940834, 0.135148, 419.723, 359.584, 21.6473, 21.2656, 0.0361027, 25.8021, 1.35594, 0.0287127
 390.51, 0.782161, 0.112355, 419.996, 364.576, 21.6947, 21.2935, 0.0359585, 25.6434, 1.19732, 0.0289627
 396.01, 0.622117, 0.0893654, 420.388, 370.067, 21.7438, 21.3228, 0.035813, 25.4835, 1.03734, 0.0292137
 401.51, 0.460721, 0.0661813, 420.959, 376.229, 21.7947, 21.3534, 0.0356664, 25.3221, 0.876001, 0.0294552
 407.01, 0.298025, 0.0428104, 421.844, 383.325, 21.8473, 21.3854, 0.0355185, 25.1595, 0.713359, 0.0296823
 412.51, 0.134179, 0.0192744, 423.317, 391.793, 21.9017, 21.4188, 0.0353696, 24.9957, 0.549558, 0.0298697
 418.01,-0.0303992,-0.00436676, 426.037, 402.484, 21.9579, 21.4537, 0.03522, 24.8311, 0.384996, 0.0299392
 423.51,-0.194548,-0.0279462, 432.023, 417.668, 22.0159, 21.49, 0.0350707, 24.6669, 0.220777, 0.0296545
 429.01,-0.352636,-0.0506552, 451.838, 447.765, 22.0756, 21.5278, 0.0349264, 24.5082, 0.0620737, 0.0272002
 434.51,-0.40821,-0.0586382, 577.639, 540.116, 22.1372, 21.5671, 0.03487, 24.4461, 0.0000000E+000, 0.0000000E+000
 440.01,-0.40821,-0.0586382, 597.996, 571.209, 22.2005, 21.6078, 0.03487, 24.4461, 0.0000000E+000, 0.0000000E+000
 445.51,-0.40821,-0.0586382, 606.39, 583.888, 22.2657, 21.6501, 0.03487, 24.4461, 0.0000000E+000, 0.0000000E+000
 451.01,-0.40821,-0.0586382, 611.335, 591.322, 22.3326, 21.6939, 0.03487, 24.4461, 0.0000000E+000, 0.0000000E+000
 456.51,-0.40821,-0.0586382, 614.753, 596.442, 22.4014, 21.7393, 0.03487, 24.4461, 0.0000000E+000, 0.0000000E+000
 462.01,-0.40821,-0.0586382, 617.313, 600.277, 22.472, 21.7862, 0.03487, 24.4461, 0.0000000E+000, 0.0000000E+000
 467.51,-0.40821,-0.0586382, 619.34, 603.304, 22.5443, 21.8346, 0.03487, 24.4461, 0.0000000E+000, 0.0000000E+000
 473.01,-0.40821,-0.0586382, 620.998, 605.77, 22.6185, 21.8846, 0.03487, 24.4461, 0.0000000E+000, 0.0000000E+000
 478.51,-0.40821,-0.0586382, 622.377, 607.832, 22.6945, 21.9362, 0.03487, 24.4461, 0.0000000E+000, 0.0000000E+000
 484.01,-0.40821,-0.0586382, 623.568, 609.604, 22.7724, 21.9894, 0.03487, 24.4461, 0.0000000E+000, 0.0000000E+000
 489.51,-0.40821,-0.0586382, 624.602, 611.153, 22.8521, 22.0442, 0.03487, 24.4461, 0.0000000E+000, 0.0000000E+000
 495.01,-0.40821,-0.0586382, 625.524, 612.519, 22.9336, 22.1006, 0.03487, 24.4461, 0.0000000E+000, 0.0000000E+000
 500,-0.40821,-0.0586382, 626.276, 613.635, 23.0094, 22.1533, 0.03487, 24.4461, 0.0000000E+000, 0.0000000E+000

File: UMD[NIST_FSRI]_Gasification_q50_R3_Mass.csv
s,kg/m2,,C,C,C,C,m,kg/m2,kg/m2,kg/m2,kg/m2/s
Time,"SD","MF","TW1","TSB1","TAL1","TB1","DX1","SD1","SD_11","SD_12","BR1"
 0.0000000E+000, 6.9619, 1.00006, 20.9, 20.9, 20.9, 20.9, 0.040961, 31.8162, 7.37011, 0.0000000E+000, 0.0000000E+000
 6.01, 6.96189, 1.00006, 161.955, 20.9022, 20.9, 20.9, 0.040961, 31.8162, 7.36977, 0.000335957, 1.04197e-05
 12.01, 6.95742, 0.999414, 226.924, 21.064, 20.9, 20.9, 0.0409578, 31.8123, 7.17451, 0.191684, 0.00230182
 18, 6.94742, 0.997978, 274.884, 22.0823, 20.9, 20.9, 0.0409494, 31.8022, 6.67017, 0.685904, 0.00183525
 24, 6.94142, 0.997116, 313.191, 24.4899, 20.9, 20.9, 0.0409443, 31.7961, 6.38967, 0.960285, 0.00127059
 30, 6.93148, 0.995687, 343.184, 28.2646, 20.9, 20.9, 0.0409362, 31.7862, 6.07663, 1.26349, 0.00168513
 36, 6.91277, 0.993001, 363.895, 33.1303, 20.9, 20.9, 0.0409214, 31.7683, 5.86438, 1.45777, 0.00459883
 42, 6.87615, 0.987739, 375.558, 38.7875, 20.9, 20.9, 0.0408916, 31.7323, 5.62017, 1.66601, 0.00725723
 48.01, 6.82378, 0.980217, 381.541, 44.9976, 20.9, 20.9, 0.0408488, 31.6805, 5.44239, 1.79199, 0.00991432
 54.01, 6.758, 0.970768, 384.95, 51.5476, 20.9, 20.9, 0.0407948, 31.6151, 5.22337, 1.94565, 0.0116949
 60.01, 6.68398, 0.960135, 387.072, 58.3038, 20.9, 20.9, 0.0407339, 31.5414, 5.04288, 2.0524, 0.0128485
 66.01, 6.60341, 0.948562, 388.703, 65.1581, 20.9, 20.9, 0.0406675, 31.4611, 4.87625, 2.13871, 0.013895
 72.01, 6.51723, 0.936182, 389.887, 72.0369, 20.9, 20.9, 0.0405964, 31.3751, 4.69547, 2.2335, 0.0147225
 78, 6.42682, 0.923195, 390.929, 78.8739, 20.9, 20.9, 0.040522, 31.285, 4.52085, 2.31802, 0.0153414
 84, 6.333, 0.909718, 391.83, 85.6575, 20.9, 20.9, 0.0404445, 31.1913, 4.3587, 2.38649, 0.0158845
 90, 6.23601, 0.895785, 392.741, 92.354, 20.9, 20.9, 0.0403645, 31.0944, 4.19608, 2.45224, 0.0164007
 96, 6.13613, 0.881438, 393.458, 98.951, 20.9001, 20.9, 0.040282, 30.9947, 4.0283, 2.52025, 0.0168398
 102, 6.03377, 0.866734, 394.158, 105.444, 20.9002, 20.9, 0.0401975, 30.8924, 3.8612, 2.58508, 0.0172329
 108, 5.92921, 0.851714, 394.918, 111.834, 20.9003, 20.9, 0.0401112, 30.7879, 3.69668, 2.64514, 0.0175941
 114, 5.8225, 0.836385, 395.538, 118.115, 20.9006, 20.9001, 0.0400231, 30.6813, 3.53035, 2.70484, 0.0179439
 120, 5.71378, 0.820768, 396.253, 124.162, 20.901, 20.9001, 0.0399333, 30.5727, 3.35977, 2.76679, 0.0182748
 126, 5.60313, 0.804873, 396.855, 129.962, 20.9016, 20.9002, 0.0398419, 30.4621, 3.1865, 2.82948, 0.0185803
 132, 5.49071, 0.788725, 397.535, 135.713, 20.9024, 20.9004, 0.039749, 30.3498, 3.01078, 2.89286, 0.0188756
 138, 5.37647, 0.772315, 398.126, 141.448, 20.9035, 20.9006, 0.0396547, 30.2356, 2.83022, 2.95926, 0.0191754
 144, 5.26051, 0.755657, 398.788, 147.168, 20.905, 20.9009, 0.0395589, 30.1197, 2.64353, 3.03005, 0.0194522
 150, 5.14279, 0.738747, 399.48, 152.875, 20.907, 20.9013, 0.0394617, 30.0021, 2.45054, 3.10539, 0.0197507
 156, 5.02336, 0.721591, 400.047, 158.572, 20.9094, 20.9018, 0.039363, 29.8827, 2.2498, 3.18677, 0.0200289
 162.01, 4.90219, 0.704186, 400.747, 164.271, 20.9125, 20.9026, 0.0392628, 29.7614, 2.03933, 3.27595, 0.0203336
 168.01, 4.77926, 0.686527, 401.338, 169.958, 20.9162, 20.9035, 0.0391613, 29.6385, 1.81894, 3.37347, 0.0206204
 174.01, 4.6546, 0.66862, 402.034, 175.646, 20.9207, 20.9047, 0.0390583, 29.514, 1.58735, 3.48048, 0.0209217
 180.01, 4.52812, 0.650452, 402.627, 181.341, 20.9261, 20.9062, 0.0389538, 29.3875, 1.34457, 3.59686, 0.0212115
 186.01, 4.39998, 0.632044, 403.302, 187.054, 20.9324, 20.9081, 0.038848, 29.2595, 1.09264, 3.72071, 0.0214794
 192.01, 4.27015, 0.613394, 404.028, 192.798, 20.9397, 20.9103, 0.0387407, 29.1297, 0.836902, 3.84668, 0.0217559
 198.01, 4.13891, 0.594543, 404.647, 198.596, 20.9481, 20.913, 0.0386323, 28.9985, 0.588048, 3.96434, 0.0219623
 204.01, 4.00659, 0.575535, 405.372, 204.481, 20.9577, 20.9162, 0.038523, 28.8662, 0.363197, 4.05691, 0.0221264
 210.01, 3.87355, 0.556424, 405.999, 210.489, 20.9685, 20.92, 0.038413, 28.7332, 0.184043, 4.10304, 0.0222044
 216.01, 3.74017, 0.537266, 406.718, 216.639, 20.9807, 20.9244, 0.0383028, 28.5998, 0.068311, 4.08542, 0.0222624
 222.01, 3.60629, 0.518033, 407.357, 222.907, 20.9943, 20.9294, 0.0381922, 28.466, 0.0154014, 4.00447, 0.0223717
 228.01, 3.47145, 0.498663, 408.063, 229.242, 21.0093, 20.9352, 0.0380808, 28.3312, 0.00155397, 3.88352, 0.0225779
 234.01, 3.33495, 0.479057, 408.814, 235.625, 21.0258, 20.9417, 0.0379681, 28.1948, 4.27124e-05, 3.74861, 0.0228906
 240.01, 3.19658, 0.459179, 409.474, 242.07, 21.044, 20.9491, 0.0378538, 28.0565, 1.41176e-07, 3.61036, 0.0232096
 246.01, 3.05618, 0.439012, 410.243, 248.601, 21.0638, 20.9575, 0.0377378, 27.9162, 1.45052e-11, 3.47005, 0.0235655
 252.01, 2.91364, 0.418537, 410.932, 255.232, 21.0853, 20.9667, 0.0376201, 27.7737, 5.94586e-18, 3.3276, 0.0239183
 258.01, 2.76893, 0.397749, 411.715, 261.982, 21.1085, 20.977, 0.0375006, 27.6291, 9.34194e-19, 3.18297, 0.024301
 264.01, 2.62183, 0.376618, 412.43, 268.861, 21.1336, 20.9884, 0.0373791, 27.4821, 9.34194e-19, 3.03596, 0.0246992
 270.01, 2.47231, 0.355141, 413.204, 275.867, 21.1606, 21.001, 0.0372556, 27.3327, 9.34194e-19, 2.88655, 0.0251101
 276.01, 2.32013, 0.333281, 414.032, 283.018, 21.1894, 21.0147, 0.0371299, 27.1806, 7.64199e-19, 2.73448, 0.0255697
 282.01, 2.16522, 0.311028, 414.773, 290.336, 21.2203, 21.0296, 0.037002, 27.0258, 7.10628e-19, 2.57968, 0.0260318
 288.01, 2.00735, 0.28835, 415.614, 297.827, 21.2531, 21.0459, 0.0368716, 26.8681, 7.10628e-19, 2.42193, 0.0265515
 294.01, 1.84632, 0.265219, 416.392, 305.517, 21.288, 21.0635, 0.0367386, 26.7072, 7.10628e-19, 2.26103, 0.027085
 300.01, 1.68195, 0.241607, 417.267, 313.428, 21.3251, 21.0825, 0.0366029, 26.5429, 5.88427e-19, 2.0968, 0.0276689
 306.01, 1.51399, 0.21748, 418.071, 321.595, 21.3643, 21.103, 0.0364642, 26.3751, 4.9862e-19, 1.92898, 0.0282708
 312.01, 1.34227, 0.192813, 418.963, 330.074, 21.4057, 21.125, 0.0363224, 26.2035, 4.61306e-19, 1.75742, 0.0289267
 318.01, 1.16654, 0.16757, 419.814, 338.948, 21.4493, 21.1486, 0.0361773, 26.028, 4.25212e-19, 1.58185, 0.0295982
 324.01, 0.986723, 0.14174, 420.738, 348.365, 21.4953, 21.1738, 0.0360288, 25.8483, 2.50131e-19, 1.40221, 0.0302921
 330.01, 0.802655, 0.115299, 421.667, 358.546, 21.5435, 21.2006, 0.0358769, 25.6644, 2.44393e-19, 1.21831, 0.0310008
 336.01, 0.61438, 0.0882539, 422.705, 369.847, 21.5942, 21.2291, 0.0357214, 25.4763, 2.44393e-19, 1.0302, 0.0316997
 342.01, 0.421977, 0.0606158, 423.855, 382.802, 21.6474, 21.2594, 0.0355625, 25.2841, 1.85393e-19, 0.837955, 0.0323583
 348.01, 0.226025, 0.0324678, 425.401, 398.18, 21.703, 21.2915, 0.0354007, 25.0882, 1.38914e-19, 0.642124, 0.0328676
 354.01, 0.0285404, 0.00409975, 427.941, 416.956, 21.7612, 21.3255, 0.0352375, 24.8907, 9.51977e-20, 0.444621, 0.0328032
 360.01,-0.163211,-0.0234448, 433.677, 439.719, 21.8219, 21.3613, 0.0350786, 24.6985, 5.5815e-20, 0.252358, 0.0307222
 366.01,-0.327509,-0.0470457, 452.839, 465.377, 21.8854, 21.3991, 0.0349413, 24.5324, 4.25e-21, 0.0863056, 0.0235114
 372.01,-0.40821,-0.0586382, 540.804, 562.018, 21.9515, 21.4389, 0.03487, 24.4461, 0.0000000E+000, 0.0000000E+000, 0.0000000E+000
 378.01,-0.40821,-0.0586382, 565.032, 586.383, 22.0205, 21.4808, 0.03487, 24.4461, 0.0000000E+000, 0.0000000E+000, 0.0000000E+000
 384.01,-0.40821,-0.0586382, 574.315, 595.719, 22.0923, 21.5248, 0.03487, 24.4461, 0.0000000E+000, 0.0000000E+000, 0.0000000E+000
 390.01,-0.40821,-0.0586382, 580.016, 601.45, 22.167, 21.5709, 0.03487, 24.4461, 0.0000000E+000, 0.0000000E+000, 0.0000000E+000
 396.01,-0.40821,-0.0586382, 584.059, 605.518, 22.2448, 21.6192, 0.03487, 24.4461, 0.0000000E+000, 0.0000000E+000, 0.0000000E+000
 402.01,-0.40821,-0.0586382, 587.16, 608.639, 22.3257, 21.6698, 0.03487, 24.4461, 0.0000000E+000, 0.0000000E+000, 0.0000000E+000
 408.01,-0.40821,-0.0586382, 589.666, 611.142, 22.4098, 21.7228, 0.03487, 24.4461, 0.0000000E+000, 0.0000000E+000, 0.0000000E+000
 414.01,-0.40821,-0.0586382, 591.73, 613.219, 22.4973, 21.7781, 0.03487, 24.4461, 0.0000000E+000, 0.0000000E+000, 0.0000000E+000
 420.01,-0.40821,-0.0586382, 593.497, 614.988, 22.5885, 21.8359, 0.03487, 24.4461, 0.0000000E+000, 0.0000000E+000, 0.0000000E+000
 426.01,-0.40821,-0.0586382, 595.005, 616.521, 22.6835, 21.8963, 0.03487, 24.4461, 0.0000000E+000, 0.0000000E+000, 0.0000000E+000
 432.01,-0.40821,-0.0586382, 596.353, 617.867, 22.7828, 21.9594, 0.03487, 24.4461, 0.0000000E+000, 0.0000000E+000, 0.0000000E+000
 438.01,-0.40821,-0.0586382, 597.546, 619.06, 22.8869, 22.0253, 0.03487, 24.4461, 0.0000000E+000, 0.0000000E+000, 0.0000000E+000
 444.01,-0.40821,-0.0586382, 598.613, 620.135, 22.9962, 22.0941, 0.03487, 24.4461, 0.0000000E+000, 0.0000000E+000, 0.0000000E+000
 450.01,-0.40821,-0.0586382, 599.578, 621.104, 23.1114, 22.1661, 0.03487, 24.4461, 0.0000000E+000, 0.0000000E+000, 0.0000000E+000
 456.01,-0.40821,-0.0586382, 600.466, 621.993, 23.2331, 22.2415, 0.03487, 24.4461, 0.0000000E+000, 0.0000000E+000, 0.0000000E+000
 462.01,-0.40821,-0.0586382, 601.253, 622.81, 23.3619, 22.3206, 0.03487, 24.4461, 0.0000000E+000, 0.0000000E+000, 0.0000000E+000
 468.01,-0.40821,-0.0586382, 602.004, 623.556, 23.4984, 22.4037, 0.03487, 24.4461, 0.0000000E+000, 0.0000000E+000, 0.0000000E+000
 474.01,-0.40821,-0.0586382, 602.701, 624.247, 23.6431, 22.491, 0.03487, 24.4461, 0.0000000E+000, 0.0000000E+000, 0.0000000E+000
 480.01,-0.40821,-0.0586382, 603.354, 624.892, 23.7964, 22.5828, 0.03487, 24.4461, 0.0000000E+000, 0.0000000E+000, 0.0000000E+000
 486.01,-0.40821,-0.0586382, 603.936, 625.497, 23.9589, 22.6796, 0.03487, 24.4461, 0.0000000E+000, 0.0000000E+000, 0.0000000E+000
 492.01,-0.40821,-0.0586382, 604.509, 626.059, 24.1307, 22.7816, 0.03487, 24.4461, 0.0000000E+000, 0.0000000E+000, 0.0000000E+000
 498.01,-0.40821,-0.0586382, 605.022, 626.591, 24.3122, 22.8892, 0.03487, 24.4461, 0.0000000E+000, 0.0000000E+000, 0.0000000E+000
 500,-0.40821,-0.0586382, 605.187, 626.762, 24.3747, 22.9262, 0.03487, 24.4461, 0.0000000E+000, 0.0000000E+000, 0.0000000E+000