Folder: matl-db/PMMA/Calibration_Results/NIST_FSRI/NIST_Props (part 2)

File: NIST_FSRI_Gasification_q50_T4_Temp.csv
Time,T_back
[s],[K]
0.0,293.6
2.0,293.6
4.0,293.6
6.0,293.6
8.0,293.6
10.0,293.6
12.0,293.6
14.0,293.6
16.0,293.6
18.0,293.6
20.0,293.6
22.0,293.7
24.0,293.7
26.0,293.8
28.0,293.9
30.0,294.0
32.0,294.2
34.0,294.4
36.0,294.7
38.0,295.1
40.0,295.5
42.0,296.0
44.0,296.6
46.0,297.2
48.0,298.0
50.0,298.8
52.0,299.6
54.0,300.6
56.0,301.6
58.0,302.7
60.0,303.8
62.0,305.0
64.0,306.3
66.0,307.7
68.0,309.1
70.0,310.6
72.0,312.1
74.0,313.7
76.0,315.3
78.0,317.0
80.0,318.7
82.0,320.5
84.0,322.3
86.0,324.2
88.0,326.0
90.0,327.9
92.0,329.9
94.0,331.8
96.0,333.8
98.0,335.9
100.0,337.9
102.0,339.9
104.0,342.0
106.0,344.1
108.0,346.2
110.0,348.3
112.0,350.4
114.0,352.6
116.0,354.7
118.0,356.9
120.0,359.0
122.0,361.2
124.0,363.3
126.0,365.5
128.0,367.7
130.0,369.9
132.0,372.1
134.0,374.2
136.0,376.4
138.0,378.6
140.0,380.8
142.0,383.0
144.0,385.2
146.0,387.3
148.0,389.5
150.0,391.7
152.0,393.9
154.0,396.1
156.0,398.2
158.0,400.4
160.0,402.6
162.0,404.8
164.0,406.9
166.0,409.1
168.0,411.3
170.0,413.4
172.0,415.6
174.0,417.7
176.0,419.9
178.0,422.0
180.0,424.2
182.0,426.3
184.0,428.5
186.0,430.6
188.0,432.7
190.0,434.9
192.0,437.0
194.0,439.1
196.0,441.3
198.0,443.4
200.0,445.5
202.0,447.6
204.0,449.7
206.0,451.9
208.0,454.0
210.0,456.1
212.0,458.2
214.0,460.3
216.0,462.4
218.0,464.5
220.0,466.6
222.0,468.7
224.0,470.8
226.0,472.9
228.0,475.0
230.0,477.0
232.0,479.1
234.0,481.2
236.0,483.3
238.0,485.4
240.0,487.4
242.0,489.5
244.0,491.6
246.0,493.6
248.0,495.7
250.0,497.8
252.0,499.8
254.0,501.9
256.0,504.0
258.0,506.0
260.0,508.1
262.0,510.1
264.0,512.2
266.0,514.2
268.0,516.2
270.0,518.3
272.0,520.3
274.0,522.3
276.0,524.4
278.0,526.4
280.0,528.4
282.0,530.4
284.0,532.4
286.0,534.4
288.0,536.4
290.0,538.4
292.0,540.4
294.0,542.4
296.0,544.4
298.0,546.4
300.0,548.3
302.0,550.3
304.0,552.2
306.0,554.1
308.0,556.1
310.0,558.0
312.0,559.9
314.0,561.8
316.0,563.6
318.0,565.5
320.0,567.4
322.0,569.2
324.0,571.0
326.0,572.8
328.0,574.6
330.0,576.4
332.0,578.1
334.0,579.8
336.0,581.6
338.0,583.2
340.0,584.9
342.0,586.6
344.0,588.2
346.0,589.8
348.0,591.4
350.0,593.0
352.0,594.5
354.0,596.1
356.0,597.6
358.0,599.1
360.0,600.6
362.0,602.1
364.0,603.5
366.0,605.0
368.0,606.4
370.0,607.9
372.0,609.3
374.0,610.7
376.0,612.1
378.0,613.6
380.0,615.0
382.0,616.4
384.0,617.9
386.0,619.4
388.0,620.8
390.0,622.3
392.0,623.9
394.0,625.4
396.0,627.0
398.0,628.6
400.0,630.2
402.0,631.9
404.0,633.7
406.0,635.5
408.0,637.3
410.0,639.2
412.0,641.2
414.0,643.3
416.0,645.4
418.0,647.7
420.0,650.1
422.0,652.5
424.0,655.2
426.0,658.0
428.0,661.0
430.0,664.2
432.0,667.7
434.0,671.5
436.0,675.8
438.0,680.6
440.0,686.1
442.0,692.8
444.0,701.2
446.0,713.0
448.0,733.9
450.0,762.7
452.0,808.2
454.0,826.4
456.0,837.2
458.0,844.6
460.0,850.1
462.0,854.5
464.0,858.0
466.0,860.9
468.0,863.4
470.0,865.6
472.0,867.6
474.0,869.3
476.0,870.8
478.0,872.2
480.0,873.5
482.0,874.7
484.0,875.8
486.0,876.8
488.0,877.7
490.0,878.6
492.0,879.4
494.0,880.1
496.0,880.9
498.0,881.5
500.0,882.2

File: NIST_FSRI_Gasification_q50_T5_Temp.csv
Time,T_back
[s],[K]
0.0,292.4
2.0,292.4
4.0,292.4
6.0,292.4
8.0,292.4
10.0,292.4
12.0,292.4
14.0,292.4
16.0,292.4
18.0,292.4
20.0,292.4
22.0,292.4
24.0,292.5
26.0,292.5
28.0,292.6
30.0,292.7
32.0,292.8
34.0,293.0
36.0,293.2
38.0,293.5
40.0,293.8
42.0,294.2
44.0,294.7
46.0,295.2
48.0,295.8
50.0,296.4
52.0,297.1
54.0,297.9
56.0,298.7
58.0,299.6
60.0,300.6
62.0,301.7
64.0,302.8
66.0,303.9
68.0,305.1
70.0,306.4
72.0,307.8
74.0,309.1
76.0,310.6
78.0,312.1
80.0,313.6
82.0,315.2
84.0,316.8
86.0,318.4
88.0,320.1
90.0,321.8
92.0,323.6
94.0,325.4
96.0,327.2
98.0,329.0
100.0,330.9
102.0,332.8
104.0,334.7
106.0,336.6
108.0,338.5
110.0,340.5
112.0,342.4
114.0,344.4
116.0,346.4
118.0,348.4
120.0,350.4
122.0,352.5
124.0,354.5
126.0,356.5
128.0,358.6
130.0,360.6
132.0,362.7
134.0,364.7
136.0,366.8
138.0,368.9
140.0,370.9
142.0,373.0
144.0,375.1
146.0,377.1
148.0,379.2
150.0,381.3
152.0,383.3
154.0,385.4
156.0,387.5
158.0,389.6
160.0,391.7
162.0,393.7
164.0,395.8
166.0,397.9
168.0,399.9
170.0,402.0
172.0,404.1
174.0,406.1
176.0,408.2
178.0,410.3
180.0,412.3
182.0,414.4
184.0,416.4
186.0,418.5
188.0,420.6
190.0,422.6
192.0,424.7
194.0,426.7
196.0,428.8
198.0,430.8
200.0,432.9
202.0,434.9
204.0,437.0
206.0,439.0
208.0,441.0
210.0,443.1
212.0,445.1
214.0,447.1
216.0,449.2
218.0,451.2
220.0,453.2
222.0,455.3
224.0,457.3
226.0,459.3
228.0,461.4
230.0,463.4
232.0,465.4
234.0,467.4
236.0,469.5
238.0,471.5
240.0,473.5
242.0,475.5
244.0,477.5
246.0,479.5
248.0,481.6
250.0,483.6
252.0,485.6
254.0,487.6
256.0,489.6
258.0,491.6
260.0,493.6
262.0,495.6
264.0,497.6
266.0,499.6
268.0,501.6
270.0,503.6
272.0,505.6
274.0,507.6
276.0,509.6
278.0,511.6
280.0,513.6
282.0,515.6
284.0,517.6
286.0,519.6
288.0,521.6
290.0,523.6
292.0,525.5
294.0,527.5
296.0,529.5
298.0,531.5
300.0,533.4
302.0,535.4
304.0,537.3
306.0,539.3
308.0,541.2
310.0,543.2
312.0,545.1
314.0,547.1
316.0,549.0
318.0,550.9
320.0,552.8
322.0,554.7
324.0,556.6
326.0,558.4
328.0,560.3
330.0,562.2
332.0,564.0
334.0,565.8
336.0,567.7
338.0,569.5
340.0,571.2
342.0,573.0
344.0,574.8
346.0,576.5
348.0,578.2
350.0,579.9
352.0,581.6
354.0,583.3
356.0,585.0
358.0,586.6
360.0,588.2
362.0,589.8
364.0,591.4
366.0,592.9
368.0,594.5
370.0,596.0
372.0,597.5
374.0,599.0
376.0,600.5
378.0,602.0
380.0,603.4
382.0,604.8
384.0,606.3
386.0,607.7
388.0,609.1
390.0,610.5
392.0,612.0
394.0,613.4
396.0,614.8
398.0,616.2
400.0,617.7
402.0,619.1
404.0,620.6
406.0,622.1
408.0,623.6
410.0,625.2
412.0,626.7
414.0,628.3
416.0,630.0
418.0,631.6
420.0,633.4
422.0,635.2
424.0,637.0
426.0,638.9
428.0,640.9
430.0,642.9
432.0,645.0
434.0,647.3
436.0,649.6
438.0,652.1
440.0,654.7
442.0,657.4
444.0,660.4
446.0,663.6
448.0,667.0
450.0,670.8
452.0,674.9
454.0,679.6
456.0,685.0
458.0,691.4
460.0,699.4
462.0,710.3
464.0,728.3
466.0,767.2
468.0,802.8
470.0,823.6
472.0,835.4
474.0,843.3
476.0,849.1
478.0,853.6
480.0,857.3
482.0,860.3
484.0,862.9
486.0,865.2
488.0,867.1
490.0,868.9
492.0,870.5
494.0,871.9
496.0,873.2
498.0,874.4
500.0,875.5