Folder: matl-db/PMMA/Calibration_Results/NIST_FSRI/NIST_Props

Note: PMMA/Calibration_Results/NIST_FSRI/README.md
# NIST_FSRI Calibration Results

This folder holds results of NIST_FSRI efforts on modeling the PMMA gasification tests.

## Notes on Modeling

* The constant specific heat value reported for the insulation was replaced (in advance of performing any simulations) with a temperature depdendent curve. This curve was generated using the reported composition of Kaowoll PM (44 % Al2O3 and 56 % SiO2) and specific heat data from the NIST Webbook.

* The black painted insulation only test, using the reported time-dependence of the heat flux, was used to calibrate the heat transfer coefficient in the gasification device. FDS simulations of the Kaowoll PM and Al backplate were performed using the default FDS method for determining the heat transfer coefficient followed by fixing the value at 10 and 20 W/m/K. A linear fit of h and the predicted end temperatures at each TC location was used to determine the h that would result in the measured temperature. For the three TC locations, these values were 13.2, 13.1, and 13.8 W/m/K and h. For PMMA simulations h was set to 13 W/m/K.

* For the gasification tests, the adhesive used to bond the PMMA disc to the Kaowoll was combustible. IN modeling, the reported mass of adhesive was treated as PMMA. For example,  if the PMMA sample was 25 g and 1 g of adhesive was used, then the sample thickness was increased by 4 % to account for the adhesive mass. As was done in the experiments, the reported FDS mass output was tared to the PMMA sample mass.

## Folder Structure

### Sensitivity

The data in this folder examine the sensitivity of the results to level of detail of the gasification tests included in the FDS input. In a typical use case, an FDS user attempting to use cone type data would likely only know the nominal flux for the test and not any spatial or temporal dependence in that flux. Additionally, each property dataset reports a density; however, each gasification test also results in a density based on the reported disc diameter, thickness, and mass. Two sets of sensitivity runs were made.

#### Set 1

The first set looks at the impact on predicting the mass loss rate. It uses the 50 kW/m2 R3 test. The sensitivities include:

* simple: Setting EXTERNAL_FLUX=50 with no time or spatial dependence using the NIST property set density (i.e., the reported gasification density was adjusted to preserve mass).
* simple_rho: Setting EXTERNAL_FLUX=50 with no time or spatial dependence using density based on the reported dimensions and mass for the gasification test.
* fluxT: The simple case plus RAMP_Q to ramp the EXTERNAL_FLUX using the reported time dependence.
* fluxR: The simple case where 5 VENT inputs were used for the PMMA sample. Each VENT represented an equal area ring segment of the disc (ring segments between 0, SQRT(0.2) r, SQRT(0.4) r, etc.). The EXTERNAL_FLUX was set to the average flux over that ring using the reported radial data
* full: Both fluxT and fluxR
* full_rho: Using the gasification test derived d

File: NIST_FSRI_Gasification_q25_T1_Temp.csv
Time,T_back
[s],[K]
0,294.5
2,294.5
4,294.5
6,294.5
8,294.5
10,294.5
12,294.5
14,294.5
16,294.6
18,294.6
20,294.8
22,295.0
24,295.2
26,295.6
28,296.0
30,296.5
32,297.2
34,297.9
36,298.7
38,299.6
40,300.6
42,301.7
44,302.9
46,304.2
48,305.5
50,306.9
52,308.4
54,310.0
56,311.6
58,313.3
60,315.0
62,316.8
64,318.6
66,320.4
68,322.3
70,324.3
72,326.2
74,328.2
76,330.2
78,332.3
80,334.3
82,336.4
84,338.5
86,340.6
88,342.7
90,344.9
92,347.0
94,349.2
96,351.3
98,353.5
100,355.7
102,357.9
104,360.0
106,362.2
108,364.4
110,366.6
112,368.7
114,370.9
116,373.1
118,375.2
120,377.4
122,379.6
124,381.7
126,383.8
128,386.0
130,388.1
132,390.2
134,392.3
136,394.4
138,396.5
140,398.6
142,400.7
144,402.7
146,404.8
148,406.8
150,408.8
152,410.9
154,412.9
156,414.9
158,416.8
160,418.8
162,420.8
164,422.7
166,424.6
168,426.6
170,428.5
172,430.3
174,432.2
176,434.1
178,435.9
180,437.8
182,439.6
184,441.4
186,443.2
188,445.0
190,446.7
192,448.5
194,450.2
196,452.0
198,453.7
200,455.4
202,457.1
204,458.7
206,460.4
208,462.0
210,463.6
212,465.3
214,466.9
216,468.4
218,470.0
220,471.6
222,473.1
224,474.6
226,476.2
228,477.7
230,479.1
232,480.6
234,482.1
236,483.5
238,485.0
240,486.4
242,487.8
244,489.2
246,490.6
248,491.9
250,493.3
252,494.6
254,495.9
256,497.3
258,498.6
260,499.9
262,501.1
264,502.4
266,503.7
268,504.9
270,506.1
272,507.3
274,508.5
276,509.7
278,510.9
280,512.1
282,513.2
284,514.4
286,515.5
288,516.6
290,517.8
292,518.9
294,519.9
296,521.0
298,522.1
300,523.1
302,524.2
304,525.2
306,526.2
308,527.2
310,528.2
312,529.2
314,530.2
316,531.2
318,532.1
320,533.1
322,534.0
324,534.9
326,535.9
328,536.8
330,537.7
332,538.5
334,539.4
336,540.3
338,541.1
340,542.0
342,542.8
344,543.6
346,544.4
348,545.2
350,546.0
352,546.8
354,547.6
356,548.3
358,549.1
360,549.8
362,550.6
364,551.3
366,552.0
368,552.7
370,553.4
372,554.1
374,554.7
376,555.4
378,556.1
380,556.7
382,557.4
384,558.0
386,558.6
388,559.2
390,559.8
392,560.4
394,561.0
396,561.6
398,562.2
400,562.7
402,563.3
404,563.8
406,564.4
408,564.9
410,565.4
412,566.0
414,566.5
416,567.0
418,567.5
420,568.0
422,568.4
424,568.9
426,569.4
428,569.9
430,570.3
432,570.8
434,571.2
436,571.6
438,572.1
440,572.5
442,572.9
444,573.3
446,573.8
448,574.2
450,574.6
452,575.0
454,575.4
456,575.7
458,576.1
460,576.5
462,576.9
464,577.2
466,577.6
468,578.0
470,578.3
472,578.7
474,579.0
476,579.4
478,579.7
480,580.1
482,580.4
484,580.7
486,581.1
488,581.4
490,581.7
492,582.1
494,582.4
496,582.7
498,583.0
500,583.3

File: NIST_FSRI_Gasification_q50_R3_Mass.csv
Time,Mass
[g],[g]
0.0,26.689
2.0,26.689
4.0,26.689
6.0,26.689
8.0,26.689
10.0,26.689
12.0,26.689
14.0,26.689
16.0,26.689
18.0,26.689
20.0,26.689
22.0,26.689
24.0,26.689
26.0,26.688
28.0,26.688
30.0,26.687
32.0,26.686
34.0,26.683
36.0,26.679
38.0,26.674
40.0,26.667
42.0,26.656
44.0,26.643
46.0,26.626
48.0,26.606
50.0,26.581
52.0,26.553
54.0,26.521
56.0,26.484
58.0,26.444
60.0,26.401
62.0,26.354
64.0,26.304
66.0,26.250
68.0,26.195
70.0,26.136
72.0,26.075
74.0,26.012
76.0,25.946
78.0,25.879
80.0,25.809
82.0,25.738
84.0,25.665
86.0,25.590
88.0,25.514
90.0,25.436
92.0,25.357
94.0,25.276
96.0,25.194
98.0,25.111
100.0,25.026
102.0,24.941
104.0,24.854
106.0,24.766
108.0,24.676
110.0,24.586
112.0,24.495
114.0,24.403
116.0,24.310
118.0,24.215
120.0,24.120
122.0,24.024
124.0,23.927
126.0,23.829
128.0,23.731
130.0,23.631
132.0,23.531
134.0,23.429
136.0,23.327
138.0,23.224
140.0,23.120
142.0,23.016
144.0,22.910
146.0,22.804
148.0,22.697
150.0,22.589
152.0,22.481
154.0,22.371
156.0,22.261
158.0,22.150
160.0,22.038
162.0,21.926
164.0,21.813
166.0,21.699
168.0,21.584
170.0,21.468
172.0,21.352
174.0,21.235
176.0,21.117
178.0,20.998
180.0,20.879
182.0,20.758
184.0,20.637
186.0,20.516
188.0,20.393
190.0,20.270
192.0,20.145
194.0,20.020
196.0,19.895
198.0,19.768
200.0,19.641
202.0,19.513
204.0,19.384
206.0,19.254
208.0,19.123
210.0,18.992
212.0,18.860
214.0,18.727
216.0,18.593
218.0,18.458
220.0,18.323
222.0,18.187
224.0,18.049
226.0,17.911
228.0,17.773
230.0,17.633
232.0,17.492
234.0,17.351
236.0,17.208
238.0,17.065
240.0,16.921
242.0,16.776
244.0,16.630
246.0,16.483
248.0,16.335
250.0,16.186
252.0,16.036
254.0,15.886
256.0,15.734
258.0,15.581
260.0,15.428
262.0,15.273
264.0,15.118
266.0,14.961
268.0,14.804
270.0,14.645
272.0,14.485
274.0,14.325
276.0,14.163
278.0,14.000
280.0,13.836
282.0,13.671
284.0,13.505
286.0,13.337
288.0,13.169
290.0,12.999
292.0,12.829
294.0,12.657
296.0,12.484
298.0,12.309
300.0,12.134
302.0,11.957
304.0,11.779
306.0,11.600
308.0,11.420
310.0,11.238
312.0,11.055
314.0,10.871
316.0,10.685
318.0,10.498
320.0,10.310
322.0,10.121
324.0,9.931
326.0,9.739
328.0,9.546
330.0,9.352
332.0,9.156
334.0,8.959
336.0,8.762
338.0,8.562
340.0,8.362
342.0,8.161
344.0,7.958
346.0,7.755
348.0,7.550
350.0,7.345
352.0,7.138
354.0,6.931
356.0,6.722
358.0,6.513
360.0,6.303
362.0,6.091
364.0,5.879
366.0,5.667
368.0,5.453
370.0,5.239
372.0,5.023
374.0,4.807
376.0,4.591
378.0,4.373
380.0,4.155
382.0,3.936
384.0,3.717
386.0,3.497
388.0,3.276
390.0,3.054
392.0,2.832
394.0,2.609
396.0,2.385
398.0,2.161
400.0,1.935
402.0,1.710
404.0,1.483
406.0,1.256
408.0,1.029
410.0,0.800
412.0,0.572
414.0,0.342
416.0,0.113
418.0,-0.117
420.0,-0.346
422.0,-0.575
424.0,-0.803
426.0,-1.027
428.0,-1.247
430.0,-1.451
432.0,-1.565
434.0,-1.565
436.0,-1.565
438.0,-1.565
440.0,-1.565
442.0,-1.565
444.0,-1.565
446.0,-1.565
448.0,-1.565
450.0,-1.565
452.0,-1.565
454.0,-1.565
456.0,-1.565
458.0,-1.565
460.0,-1.565
462.0,-1.565
464.0,-1.565
466.0,-1.565
468.0,-1.565
470.0,-1.565
472.0,-1.565
474.0,-1.565
476.0,-1.565
478.0,-1.565
480.0,-1.565
482.0,-1.565
484.0,-1.565
486.0,-1.565
488.0,-1.565
490.0,-1.565
492.0,-1.565
494.0,-1.565
496.0,-1.565
498.0,-1.565
500.0,-1.565

File: NIST_FSRI_Gasification_q50_R4_Mass.csv
Time,Mass
[s],[g]
0.0,25.643
2.0,25.643
4.0,25.643
6.0,25.643
8.0,25.643
10.0,25.643
12.0,25.643
14.0,25.643
16.0,25.643
18.0,25.643
20.0,25.643
22.0,25.643
24.0,25.643
26.0,25.642
28.0,25.642
30.0,25.641
32.0,25.640
34.0,25.637
36.0,25.633
38.0,25.628
40.0,25.621
42.0,25.610
44.0,25.597
46.0,25.580
48.0,25.560
50.0,25.535
52.0,25.507
54.0,25.474
56.0,25.438
58.0,25.398
60.0,25.354
62.0,25.307
64.0,25.257
66.0,25.204
68.0,25.148
70.0,25.090
72.0,25.029
74.0,24.966
76.0,24.900
78.0,24.833
80.0,24.763
82.0,24.692
84.0,24.619
86.0,24.544
88.0,24.468
90.0,24.390
92.0,24.310
94.0,24.230
96.0,24.148
98.0,24.064
100.0,23.980
102.0,23.894
104.0,23.807
106.0,23.719
108.0,23.630
110.0,23.540
112.0,23.448
114.0,23.356
116.0,23.263
118.0,23.169
120.0,23.073
122.0,22.977
124.0,22.880
126.0,22.782
128.0,22.683
130.0,22.584
132.0,22.483
134.0,22.382
136.0,22.280
138.0,22.177
140.0,22.073
142.0,21.968
144.0,21.863
146.0,21.756
148.0,21.649
150.0,21.541
152.0,21.432
154.0,21.323
156.0,21.213
158.0,21.102
160.0,20.990
162.0,20.877
164.0,20.764
166.0,20.650
168.0,20.535
170.0,20.419
172.0,20.302
174.0,20.185
176.0,20.067
178.0,19.948
180.0,19.829
182.0,19.708
184.0,19.587
186.0,19.465
188.0,19.342
190.0,19.219
192.0,19.094
194.0,18.969
196.0,18.843
198.0,18.717
200.0,18.589
202.0,18.461
204.0,18.332
206.0,18.202
208.0,18.071
210.0,17.939
212.0,17.807
214.0,17.674
216.0,17.540
218.0,17.405
220.0,17.269
222.0,17.132
224.0,16.995
226.0,16.857
228.0,16.718
230.0,16.577
232.0,16.437
234.0,16.295
236.0,16.152
238.0,16.008
240.0,15.864
242.0,15.719
244.0,15.572
246.0,15.425
248.0,15.277
250.0,15.128
252.0,14.978
254.0,14.827
256.0,14.675
258.0,14.522
260.0,14.368
262.0,14.213
264.0,14.057
266.0,13.900
268.0,13.742
270.0,13.583
272.0,13.423
274.0,13.262
276.0,13.099
278.0,12.936
280.0,12.772
282.0,12.606
284.0,12.440
286.0,12.272
288.0,12.103
290.0,11.933
292.0,11.762
294.0,11.589
296.0,11.416
298.0,11.241
300.0,11.065
302.0,10.887
304.0,10.709
306.0,10.529
308.0,10.348
310.0,10.166
312.0,9.983
314.0,9.798
316.0,9.612
318.0,9.424
320.0,9.236
322.0,9.046
324.0,8.855
326.0,8.663
328.0,8.469
330.0,8.274
332.0,8.078
334.0,7.881
336.0,7.683
338.0,7.483
340.0,7.282
342.0,7.080
344.0,6.877
346.0,6.673
348.0,6.468
350.0,6.262
352.0,6.055
354.0,5.847
356.0,5.638
358.0,5.429
360.0,5.218
362.0,5.006
364.0,4.794
366.0,4.581
368.0,4.367
370.0,4.152
372.0,3.936
374.0,3.720
376.0,3.503
378.0,3.285
380.0,3.067
382.0,2.848
384.0,2.628
386.0,2.407
388.0,2.186
390.0,1.964
392.0,1.741
394.0,1.518
396.0,1.294
398.0,1.069
400.0,0.844
402.0,0.618
404.0,0.391
406.0,0.164
408.0,-0.064
410.0,-0.293
412.0,-0.522
414.0,-0.751
416.0,-0.981
418.0,-1.210
420.0,-1.439
422.0,-1.668
424.0,-1.894
426.0,-2.117
428.0,-2.331
430.0,-2.517
432.0,-2.549
434.0,-2.549
436.0,-2.549
438.0,-2.549
440.0,-2.549
442.0,-2.549
444.0,-2.549
446.0,-2.549
448.0,-2.549
450.0,-2.549
452.0,-2.549
454.0,-2.549
456.0,-2.549
458.0,-2.549
460.0,-2.549
462.0,-2.549
464.0,-2.549
466.0,-2.549
468.0,-2.549
470.0,-2.549
472.0,-2.549
474.0,-2.549
476.0,-2.549
478.0,-2.549
480.0,-2.549
482.0,-2.549
484.0,-2.549
486.0,-2.549
488.0,-2.549
490.0,-2.549
492.0,-2.549
494.0,-2.549
496.0,-2.549
498.0,-2.549
500.0,-2.549

File: NIST_FSRI_Gasification_q50_R5_Mass.csv
Time,Mass
[s],[g]
0.0,28.113
2.0,28.113
4.0,28.113
6.0,28.113
8.0,28.113
10.0,28.113
12.0,28.113
14.0,28.113
16.0,28.113
18.0,28.113
20.0,28.113
22.0,28.113
24.0,28.113
26.0,28.112
28.0,28.112
30.0,28.111
32.0,28.110
34.0,28.107
36.0,28.104
38.0,28.098
40.0,28.091
42.0,28.081
44.0,28.068
46.0,28.051
48.0,28.031
50.0,28.006
52.0,27.978
54.0,27.946
56.0,27.910
58.0,27.870
60.0,27.826
62.0,27.779
64.0,27.729
66.0,27.677
68.0,27.621
70.0,27.562
72.0,27.502
74.0,27.439
76.0,27.373
78.0,27.306
80.0,27.237
82.0,27.165
84.0,27.093
86.0,27.018
88.0,26.942
90.0,26.864
92.0,26.785
94.0,26.705
96.0,26.623
98.0,26.540
100.0,26.456
102.0,26.371
104.0,26.284
106.0,26.197
108.0,26.108
110.0,26.019
112.0,25.928
114.0,25.836
116.0,25.744
118.0,25.651
120.0,25.556
122.0,25.461
124.0,25.365
126.0,25.268
128.0,25.171
130.0,25.072
132.0,24.973
134.0,24.873
136.0,24.773
138.0,24.671
140.0,24.569
142.0,24.466
144.0,24.362
146.0,24.258
148.0,24.153
150.0,24.047
152.0,23.941
154.0,23.834
156.0,23.726
158.0,23.618
160.0,23.508
162.0,23.399
164.0,23.288
166.0,23.177
168.0,23.065
170.0,22.953
172.0,22.840
174.0,22.726
176.0,22.611
178.0,22.496
180.0,22.380
182.0,22.264
184.0,22.147
186.0,22.029
188.0,21.911
190.0,21.792
192.0,21.672
194.0,21.552
196.0,21.431
198.0,21.309
200.0,21.186
202.0,21.063
204.0,20.940
206.0,20.815
208.0,20.690
210.0,20.564
212.0,20.438
214.0,20.311
216.0,20.183
218.0,20.055
220.0,19.926
222.0,19.796
224.0,19.665
226.0,19.534
228.0,19.402
230.0,19.269
232.0,19.136
234.0,19.002
236.0,18.867
238.0,18.731
240.0,18.595
242.0,18.458
244.0,18.320
246.0,18.181
248.0,18.042
250.0,17.902
252.0,17.761
254.0,17.619
256.0,17.477
258.0,17.334
260.0,17.190
262.0,17.045
264.0,16.899
266.0,16.753
268.0,16.605
270.0,16.457
272.0,16.308
274.0,16.159
276.0,16.008
278.0,15.857
280.0,15.704
282.0,15.551
284.0,15.397
286.0,15.242
288.0,15.086
290.0,14.929
292.0,14.772
294.0,14.613
296.0,14.453
298.0,14.293
300.0,14.131
302.0,13.968
304.0,13.805
306.0,13.640
308.0,13.475
310.0,13.308
312.0,13.141
314.0,12.972
316.0,12.802
318.0,12.631
320.0,12.459
322.0,12.286
324.0,12.112
326.0,11.937
328.0,11.760
330.0,11.583
332.0,11.404
334.0,11.224
336.0,11.043
338.0,10.861
340.0,10.677
342.0,10.492
344.0,10.306
346.0,10.119
348.0,9.931
350.0,9.742
352.0,9.551
354.0,9.359
356.0,9.166
358.0,8.971
360.0,8.776
362.0,8.579
364.0,8.381
366.0,8.182
368.0,7.982
370.0,7.781
372.0,7.579
374.0,7.375
376.0,7.171
378.0,6.965
380.0,6.759
382.0,6.552
384.0,6.343
386.0,6.134
388.0,5.924
390.0,5.713
392.0,5.501
394.0,5.288
396.0,5.075
398.0,4.861
400.0,4.646
402.0,4.430
404.0,4.214
406.0,3.996
408.0,3.778
410.0,3.560
412.0,3.340
414.0,3.120
416.0,2.900
418.0,2.678
420.0,2.456
422.0,2.233
424.0,2.010
426.0,1.786
428.0,1.561
430.0,1.335
432.0,1.109
434.0,0.882
436.0,0.655
438.0,0.427
440.0,0.198
442.0,-0.031
444.0,-0.261
446.0,-0.491
448.0,-0.721
450.0,-0.951
452.0,-1.180
454.0,-1.408
456.0,-1.634
458.0,-1.853
460.0,-2.059
462.0,-2.176
464.0,-2.176
466.0,-2.176
468.0,-2.176
470.0,-2.176
472.0,-2.176
474.0,-2.176
476.0,-2.176
478.0,-2.176
480.0,-2.176
482.0,-2.176
484.0,-2.176
486.0,-2.176
488.0,-2.176
490.0,-2.176
492.0,-2.176
494.0,-2.176
496.0,-2.176
498.0,-2.176
500.0,-2.176

File: NIST_FSRI_Gasification_q50_T1_Temp.csv
Time,T_back
[s],[K]
0.0,292.1
2.0,292.1
4.0,292.1
6.0,292.1
8.0,292.1
10.0,292.1
12.0,292.1
14.0,292.1
16.0,292.1
18.0,292.1
20.0,292.2
22.0,292.3
24.0,292.4
26.0,292.7
28.0,293.0
30.0,293.4
32.0,293.8
34.0,294.4
36.0,295.1
38.0,295.9
40.0,296.8
42.0,297.8
44.0,298.9
46.0,300.1
48.0,301.4
50.0,302.8
52.0,304.3
54.0,305.9
56.0,307.6
58.0,309.4
60.0,311.2
62.0,313.2
64.0,315.2
66.0,317.2
68.0,319.4
70.0,321.6
72.0,323.8
74.0,326.1
76.0,328.4
78.0,330.8
80.0,333.2
82.0,335.7
84.0,338.1
86.0,340.6
88.0,343.2
90.0,345.7
92.0,348.3
94.0,350.8
96.0,353.4
98.0,356.0
100.0,358.6
102.0,361.3
104.0,363.9
106.0,366.5
108.0,369.1
110.0,371.7
112.0,374.4
114.0,377.0
116.0,379.6
118.0,382.2
120.0,384.9
122.0,387.5
124.0,390.1
126.0,392.7
128.0,395.3
130.0,397.8
132.0,400.4
134.0,403.0
136.0,405.6
138.0,408.1
140.0,410.7
142.0,413.2
144.0,415.7
146.0,418.3
148.0,420.8
150.0,423.3
152.0,425.8
154.0,428.3
156.0,430.8
158.0,433.3
160.0,435.8
162.0,438.2
164.0,440.7
166.0,443.1
168.0,445.6
170.0,448.0
172.0,450.4
174.0,452.8
176.0,455.3
178.0,457.7
180.0,460.1
182.0,462.4
184.0,464.8
186.0,467.2
188.0,469.6
190.0,471.9
192.0,474.3
194.0,476.6
196.0,479.0
198.0,481.3
200.0,483.6
202.0,485.9
204.0,488.3
206.0,490.6
208.0,492.9
210.0,495.2
212.0,497.4
214.0,499.7
216.0,502.0
218.0,504.3
220.0,506.5
222.0,508.8
224.0,511.0
226.0,513.3
228.0,515.5
230.0,517.7
232.0,519.9
234.0,522.1
236.0,524.3
238.0,526.5
240.0,528.7
242.0,530.9
244.0,533.1
246.0,535.2
248.0,537.4
250.0,539.5
252.0,541.7
254.0,543.8
256.0,545.9
258.0,548.0
260.0,550.1
262.0,552.1
264.0,554.2
266.0,556.2
268.0,558.3
270.0,560.3
272.0,562.3
274.0,564.2
276.0,566.2
278.0,568.1
280.0,570.1
282.0,572.0
284.0,573.8
286.0,575.7
288.0,577.5
290.0,579.4
292.0,581.2
294.0,582.9
296.0,584.7
298.0,586.4
300.0,588.1
302.0,589.8
304.0,591.4
306.0,593.1
308.0,594.7
310.0,596.3
312.0,597.8
314.0,599.4
316.0,600.9
318.0,602.4
320.0,603.9
322.0,605.4
324.0,606.9
326.0,608.3
328.0,609.8
330.0,611.2
332.0,612.7
334.0,614.1
336.0,615.6
338.0,617.0
340.0,618.5
342.0,620.0
344.0,621.5
346.0,623.0
348.0,624.6
350.0,626.1
352.0,627.7
354.0,629.4
356.0,631.0
358.0,632.8
360.0,634.5
362.0,636.4
364.0,638.2
366.0,640.2
368.0,642.2
370.0,644.3
372.0,646.5
374.0,648.8
376.0,651.3
378.0,653.8
380.0,656.5
382.0,659.4
384.0,662.5
386.0,665.9
388.0,669.5
390.0,673.5
392.0,678.0
394.0,683.2
396.0,689.2
398.0,696.6
400.0,706.3
402.0,721.1
404.0,755.7
406.0,791.2
408.0,818.0
410.0,831.7
412.0,840.6
414.0,847.0
416.0,851.9
418.0,855.8
420.0,859.0
422.0,861.7
424.0,864.1
426.0,866.1
428.0,868.0
430.0,869.6
432.0,871.1
434.0,872.4
436.0,873.6
438.0,874.8
440.0,875.8
442.0,876.8
444.0,877.7
446.0,878.5
448.0,879.3
450.0,880.1
452.0,880.8
454.0,881.4
456.0,882.1
458.0,882.7
460.0,883.2
462.0,883.8
464.0,884.3
466.0,884.8
468.0,885.3
470.0,885.8
472.0,886.2
474.0,886.6
476.0,887.0
478.0,887.4
480.0,887.8
482.0,888.2
484.0,888.5
486.0,888.9
488.0,889.2
490.0,889.5
492.0,889.9
494.0,890.2
496.0,890.5
498.0,890.7
500.0,891.0

File: NIST_FSRI_Gasification_q50_T2_Temp.csv
Time,T_back
[s],[K]
0,292.6
2,292.6
4,292.6
6,292.6
8,292.6
10,292.6
12,292.6
14,292.6
16,292.6
18,292.6
20,292.6
22,292.7
24,292.8
26,293.0
28,293.2
30,293.5
32,293.9
34,294.4
36,294.9
38,295.5
40,296.3
42,297.1
44,298.1
46,299.1
48,300.2
50,301.4
52,302.7
54,304.1
56,305.6
58,307.2
60,308.8
62,310.6
64,312.3
66,314.2
68,316.1
70,318.1
72,320.1
74,322.2
76,324.4
78,326.5
80,328.8
82,331.0
84,333.3
86,335.6
88,338.0
90,340.3
92,342.7
94,345.1
96,347.6
98,350.0
100,352.5
102,354.9
104,357.4
106,359.9
108,362.4
110,364.9
112,367.4
114,369.9
116,372.4
118,374.9
120,377.4
122,379.9
124,382.3
126,384.8
128,387.3
130,389.8
132,392.3
134,394.8
136,397.2
138,399.7
140,402.2
142,404.6
144,407.1
146,409.5
148,412.0
150,414.4
152,416.8
154,419.3
156,421.7
158,424.1
160,426.5
162,428.9
164,431.3
166,433.7
168,436.1
170,438.4
172,440.8
174,443.2
176,445.5
178,447.9
180,450.2
182,452.5
184,454.9
186,457.2
188,459.5
190,461.8
192,464.2
194,466.5
196,468.8
198,471.1
200,473.3
202,475.6
204,477.9
206,480.2
208,482.4
210,484.7
212,487.0
214,489.2
216,491.5
218,493.7
220,495.9
222,498.2
224,500.4
226,502.6
228,504.8
230,507.0
232,509.3
234,511.4
236,513.6
238,515.8
240,518.0
242,520.2
244,522.4
246,524.5
248,526.7
250,528.8
252,531.0
254,533.1
256,535.2
258,537.4
260,539.5
262,541.6
264,543.7
266,545.8
268,547.8
270,549.9
272,551.9
274,554.0
276,556.0
278,558.0
280,560.0
282,562.0
284,563.9
286,565.9
288,567.8
290,569.7
292,571.6
294,573.5
296,575.4
298,577.2
300,579.0
302,580.8
304,582.6
306,584.3
308,586.1
310,587.8
312,589.4
314,591.1
316,592.7
318,594.3
320,595.9
322,597.5
324,599.1
326,600.6
328,602.1
330,603.6
332,605.1
334,606.6
336,608.0
338,609.5
340,611.0
342,612.4
344,613.9
346,615.3
348,616.8
350,618.3
352,619.8
354,621.3
356,622.8
358,624.3
360,625.9
362,627.5
364,629.2
366,630.9
368,632.6
370,634.4
372,636.2
374,638.1
376,640.0
378,642.1
380,644.2
382,646.4
384,648.7
386,651.1
388,653.7
390,656.4
392,659.3
394,662.4
396,665.8
398,669.5
400,673.5
402,678.0
404,683.2
406,689.2
408,696.7
410,706.5
412,721.5
414,757.3
416,792.9
418,819.5
420,833.2
422,842.1
424,848.5
426,853.4
428,857.3
430,860.5
432,863.3
434,865.6
436,867.7
438,869.5
440,871.1
442,872.6
444,874.0
446,875.2
448,876.3
450,877.4
452,878.3
454,879.2
456,880.1
458,880.9
460,881.6
462,882.3
464,883.0
466,883.6
468,884.2
470,884.8
472,885.4
474,885.9
476,886.4
478,886.9
480,887.3
482,887.8
484,888.2
486,888.6
488,889.0
490,889.4
492,889.7
494,890.1
496,890.4
498,890.8
500,891.1

File: NIST_FSRI_Gasification_q50_T3_Temp.csv
Time,T_back
[s],[K]
0.0,292.4
2.0,292.4
4.0,292.4
6.0,292.4
8.0,292.4
10.0,292.4
12.0,292.4
14.0,292.4
16.0,292.4
18.0,292.4
20.0,292.4
22.0,292.4
24.0,292.4
26.0,292.5
28.0,292.6
30.0,292.7
32.0,292.9
34.0,293.1
36.0,293.3
38.0,293.6
40.0,294.0
42.0,294.5
44.0,295.0
46.0,295.6
48.0,296.2
50.0,296.9
52.0,297.7
54.0,298.6
56.0,299.5
58.0,300.5
60.0,301.6
62.0,302.7
64.0,303.9
66.0,305.2
68.0,306.5
70.0,307.9
72.0,309.3
74.0,310.8
76.0,312.4
78.0,313.9
80.0,315.6
82.0,317.3
84.0,319.0
86.0,320.7
88.0,322.5
90.0,324.3
92.0,326.2
94.0,328.1
96.0,330.0
98.0,331.9
100.0,333.9
102.0,335.8
104.0,337.8
106.0,339.8
108.0,341.9
110.0,343.9
112.0,346.0
114.0,348.0
116.0,350.1
118.0,352.2
120.0,354.3
122.0,356.4
124.0,358.5
126.0,360.6
128.0,362.7
130.0,364.8
132.0,367.0
134.0,369.1
136.0,371.2
138.0,373.3
140.0,375.5
142.0,377.6
144.0,379.7
146.0,381.9
148.0,384.0
150.0,386.1
152.0,388.3
154.0,390.4
156.0,392.5
158.0,394.7
160.0,396.8
162.0,398.9
164.0,401.0
166.0,403.2
168.0,405.3
170.0,407.4
172.0,409.5
174.0,411.6
176.0,413.8
178.0,415.9
180.0,418.0
182.0,420.1
184.0,422.2
186.0,424.3
188.0,426.4
190.0,428.5
192.0,430.6
194.0,432.7
196.0,434.8
198.0,436.9
200.0,438.9
202.0,441.0
204.0,443.1
206.0,445.2
208.0,447.3
210.0,449.4
212.0,451.4
214.0,453.5
216.0,455.6
218.0,457.6
220.0,459.7
222.0,461.8
224.0,463.8
226.0,465.9
228.0,468.0
230.0,470.0
232.0,472.1
234.0,474.1
236.0,476.2
238.0,478.2
240.0,480.3
242.0,482.3
244.0,484.4
246.0,486.4
248.0,488.5
250.0,490.5
252.0,492.5
254.0,494.6
256.0,496.6
258.0,498.7
260.0,500.7
262.0,502.7
264.0,504.7
266.0,506.8
268.0,508.8
270.0,510.8
272.0,512.8
274.0,514.9
276.0,516.9
278.0,518.9
280.0,520.9
282.0,522.9
284.0,524.9
286.0,526.9
288.0,528.9
290.0,530.9
292.0,532.9
294.0,534.9
296.0,536.8
298.0,538.8
300.0,540.8
302.0,542.7
304.0,544.7
306.0,546.6
308.0,548.6
310.0,550.5
312.0,552.4
314.0,554.3
316.0,556.2
318.0,558.1
320.0,560.0
322.0,561.9
324.0,563.8
326.0,565.6
328.0,567.4
330.0,569.2
332.0,571.0
334.0,572.8
336.0,574.6
338.0,576.4
340.0,578.1
342.0,579.8
344.0,581.5
346.0,583.2
348.0,584.9
350.0,586.5
352.0,588.1
354.0,589.7
356.0,591.3
358.0,592.9
360.0,594.4
362.0,596.0
364.0,597.5
366.0,599.0
368.0,600.5
370.0,601.9
372.0,603.4
374.0,604.8
376.0,606.3
378.0,607.7
380.0,609.1
382.0,610.5
384.0,612.0
386.0,613.4
388.0,614.8
390.0,616.2
392.0,617.7
394.0,619.1
396.0,620.6
398.0,622.1
400.0,623.6
402.0,625.2
404.0,626.7
406.0,628.3
408.0,630.0
410.0,631.7
412.0,633.4
414.0,635.2
416.0,637.0
418.0,638.9
420.0,640.9
422.0,642.9
424.0,645.1
426.0,647.3
428.0,649.6
430.0,652.1
432.0,654.7
434.0,657.5
436.0,660.4
438.0,663.6
440.0,667.0
442.0,670.8
444.0,674.9
446.0,679.7
448.0,685.1
450.0,691.5
452.0,699.5
454.0,710.4
456.0,728.5
458.0,766.1
460.0,803.0
462.0,823.7
464.0,835.4
466.0,843.3
468.0,849.1
470.0,853.6
472.0,857.3
474.0,860.3
476.0,862.9
478.0,865.1
480.0,867.1
482.0,868.8
484.0,870.4
486.0,871.8
488.0,873.1
490.0,874.3
492.0,875.4
494.0,876.5
496.0,877.4
498.0,878.3
500.0,879.1