Folder: matl-db/PMMA/Calibration_Results/NIST_FSRI/Sensitivity (part 2)

File: NIST_FSRI_Gasification_q50_T1_Temp_simple.csv
Time,T_back
[s],[K]
0,292.1
2,292.1
4,292.1
6,292.1
8,292.1
10,292.1
12,292.1
14,292.1
16,292.1
18,292.1
20,292.2
22,292.3
24,292.4
26,292.7
28,293.0
30,293.4
32,293.8
34,294.4
36,295.1
38,295.9
40,296.8
42,297.8
44,298.9
46,300.1
48,301.4
50,302.8
52,304.3
54,305.9
56,307.6
58,309.4
60,311.3
62,313.2
64,315.2
66,317.3
68,319.4
70,321.6
72,323.9
74,326.1
76,328.5
78,330.9
80,333.3
82,335.7
84,338.2
86,340.7
88,343.3
90,345.8
92,348.4
94,351.0
96,353.6
98,356.2
100,358.8
102,361.4
104,364.0
106,366.7
108,369.3
110,371.9
112,374.6
114,377.2
116,379.8
118,382.5
120,385.1
122,387.7
124,390.3
126,392.9
128,395.5
130,398.1
132,400.7
134,403.3
136,405.9
138,408.4
140,411.0
142,413.5
144,416.1
146,418.6
148,421.2
150,423.7
152,426.2
154,428.7
156,431.2
158,433.7
160,436.2
162,438.7
164,441.1
166,443.6
168,446.0
170,448.5
172,450.9
174,453.4
176,455.8
178,458.2
180,460.6
182,463.0
184,465.4
186,467.8
188,470.2
190,472.5
192,474.9
194,477.3
196,479.6
198,482.0
200,484.3
202,486.6
204,488.9
206,491.3
208,493.6
210,495.9
212,498.2
214,500.5
216,502.8
218,505.0
220,507.3
222,509.6
224,511.8
226,514.1
228,516.3
230,518.6
232,520.8
234,523.0
236,525.2
238,527.4
240,529.6
242,531.8
244,534.0
246,536.2
248,538.3
250,540.5
252,542.6
254,544.8
256,546.9
258,549.0
260,551.1
262,553.2
264,555.2
266,557.3
268,559.3
270,561.3
272,563.3
274,565.3
276,567.3
278,569.2
280,571.2
282,573.1
284,575.0
286,576.8
288,578.7
290,580.5
292,582.3
294,584.1
296,585.8
298,587.5
300,589.2
302,590.9
304,592.6
306,594.2
308,595.8
310,597.4
312,599.0
314,600.5
316,602.0
318,603.6
320,605.0
322,606.5
324,608.0
326,609.5
328,610.9
330,612.4
332,613.9
334,615.3
336,616.8
338,618.3
340,619.8
342,621.3
344,622.8
346,624.4
348,626.0
350,627.6
352,629.2
354,630.9
356,632.6
358,634.4
360,636.2
362,638.1
364,640.1
366,642.1
368,644.2
370,646.4
372,648.8
374,651.2
376,653.8
378,656.5
380,659.4
382,662.5
384,665.9
386,669.5
388,673.6
390,678.1
392,683.3
394,689.4
396,696.9
398,706.7
400,721.9
402,758.9
404,793.6
406,819.7
408,833.3
410,842.1
412,848.5
414,853.3
416,857.3
418,860.5
420,863.2
422,865.5
424,867.6
426,869.4
428,871.0
430,872.5
432,873.8
434,875.1
436,876.2
438,877.3
440,878.2
442,879.1
444,880.0
446,880.8
448,881.5
450,882.2
452,882.9
454,883.5
456,884.1
458,884.7
460,885.2
462,885.8
464,886.3
466,886.7
468,887.2
470,887.7
472,888.1
474,888.5
476,888.9
478,889.3
480,889.6
482,890.0
484,890.3
486,890.7
488,891.0
490,891.3
492,891.6
494,891.9
496,892.2
498,892.5
500,892.7