Folder: matl-db/PMMA/Calibration_Results/NIST_FSRI/Sensitivity

Note: PMMA/Calibration_Results/NIST_FSRI/README.md
# NIST_FSRI Calibration Results

This folder holds results of NIST_FSRI efforts on modeling the PMMA gasification tests.

## Notes on Modeling

* The constant specific heat value reported for the insulation was replaced (in advance of performing any simulations) with a temperature depdendent curve. This curve was generated using the reported composition of Kaowoll PM (44 % Al2O3 and 56 % SiO2) and specific heat data from the NIST Webbook.

* The black painted insulation only test, using the reported time-dependence of the heat flux, was used to calibrate the heat transfer coefficient in the gasification device. FDS simulations of the Kaowoll PM and Al backplate were performed using the default FDS method for determining the heat transfer coefficient followed by fixing the value at 10 and 20 W/m/K. A linear fit of h and the predicted end temperatures at each TC location was used to determine the h that would result in the measured temperature. For the three TC locations, these values were 13.2, 13.1, and 13.8 W/m/K and h. For PMMA simulations h was set to 13 W/m/K.

* For the gasification tests, the adhesive used to bond the PMMA disc to the Kaowoll was combustible. IN modeling, the reported mass of adhesive was treated as PMMA. For example,  if the PMMA sample was 25 g and 1 g of adhesive was used, then the sample thickness was increased by 4 % to account for the adhesive mass. As was done in the experiments, the reported FDS mass output was tared to the PMMA sample mass.

## Folder Structure

### Sensitivity

The data in this folder examine the sensitivity of the results to level of detail of the gasification tests included in the FDS input. In a typical use case, an FDS user attempting to use cone type data would likely only know the nominal flux for the test and not any spatial or temporal dependence in that flux. Additionally, each property dataset reports a density; however, each gasification test also results in a density based on the reported disc diameter, thickness, and mass. Two sets of sensitivity runs were made.

#### Set 1

The first set looks at the impact on predicting the mass loss rate. It uses the 50 kW/m2 R3 test. The sensitivities include:

* simple: Setting EXTERNAL_FLUX=50 with no time or spatial dependence using the NIST property set density (i.e., the reported gasification density was adjusted to preserve mass).
* simple_rho: Setting EXTERNAL_FLUX=50 with no time or spatial dependence using density based on the reported dimensions and mass for the gasification test.
* fluxT: The simple case plus RAMP_Q to ramp the EXTERNAL_FLUX using the reported time dependence.
* fluxR: The simple case where 5 VENT inputs were used for the PMMA sample. Each VENT represented an equal area ring segment of the disc (ring segments between 0, SQRT(0.2) r, SQRT(0.4) r, etc.). The EXTERNAL_FLUX was set to the average flux over that ring using the reported radial data
* full: Both fluxT and fluxR
* full_rho: Using the gasification test derived d

File: NIST_FSRI_Gasification_q50_R3_Mass_fluxR.csv
Time,Mass
[s],[g]
0,26.689
2,26.689
4,26.689
6,26.689
8,26.689
10,26.689
12,26.689
14,26.689
16,26.689
18,26.689
20,26.689
22,26.689
24,26.689
26,26.689
28,26.688
30,26.687
32,26.686
34,26.684
36,26.68
38,26.676
40,26.669
42,26.659
44,26.647
46,26.631
48,26.612
50,26.589
52,26.562
54,26.531
56,26.496
58,26.458
60,26.416
62,26.37
64,26.322
66,26.27
68,26.215
70,26.158
72,26.099
74,26.037
76,25.972
78,25.906
80,25.838
82,25.768
84,25.696
86,25.622
88,25.547
90,25.47
92,25.392
94,25.312
96,25.232
98,25.149
100,25.066
102,24.981
104,24.895
106,24.808
108,24.72
110,24.631
112,24.541
114,24.449
116,24.357
118,24.264
120,24.17
122,24.075
124,23.979
126,23.882
128,23.784
130,23.685
132,23.586
134,23.486
136,23.384
138,23.282
140,23.18
142,23.076
144,22.971
146,22.866
148,22.76
150,22.653
152,22.546
154,22.437
156,22.328
158,22.218
160,22.107
162,21.996
164,21.884
166,21.77
168,21.657
170,21.542
172,21.427
174,21.311
176,21.194
178,21.076
180,20.957
182,20.838
184,20.718
186,20.597
188,20.476
190,20.353
192,20.23
194,20.106
196,19.982
198,19.856
200,19.73
202,19.603
204,19.475
206,19.346
208,19.217
210,19.087
212,18.956
214,18.824
216,18.691
218,18.557
220,18.423
222,18.288
224,18.152
226,18.015
228,17.877
230,17.738
232,17.599
234,17.459
236,17.317
238,17.175
240,17.032
242,16.888
244,16.744
246,16.598
248,16.451
250,16.304
252,16.155
254,16.006
256,15.855
258,15.704
260,15.552
262,15.399
264,15.244
266,15.089
268,14.933
270,14.776
272,14.617
274,14.458
276,14.298
278,14.136
280,13.974
282,13.81
284,13.645
286,13.48
288,13.313
290,13.145
292,12.976
294,12.805
296,12.634
298,12.461
300,12.287
302,12.112
304,11.936
306,11.758
308,11.579
310,11.4
312,11.218
314,11.036
316,10.852
318,10.667
320,10.481
322,10.294
324,10.105
326,9.915
328,9.724
330,9.531
332,9.338
334,9.143
336,8.947
338,8.75
340,8.551
342,8.352
344,8.152
346,7.95
348,7.747
350,7.544
352,7.339
354,7.133
356,6.926
358,6.719
360,6.51
362,6.301
364,6.091
366,5.88
368,5.668
370,5.456
372,5.242
374,5.028
376,4.813
378,4.598
380,4.381
382,4.164
384,3.947
386,3.728
388,3.509
390,3.289
392,3.069
394,2.847
396,2.626
398,2.403
400,2.18
402,1.956
404,1.731
406,1.506
408,1.28
410,1.054
412,0.827
414,0.6
416,0.372
418,0.144
420,-0.084
422,-0.312
424,-0.539
426,-0.763
428,-0.981
430,-1.166
432,-1.311
434,-1.423
436,-1.503
438,-1.547
440,-1.565
442,-1.565
444,-1.565
446,-1.565
448,-1.565
450,-1.565
452,-1.565
454,-1.565
456,-1.565
458,-1.565
460,-1.565
462,-1.565
464,-1.565
466,-1.565
468,-1.565
470,-1.565
472,-1.565
474,-1.565
476,-1.565
478,-1.565
480,-1.565
482,-1.565
484,-1.565
486,-1.565
488,-1.565
490,-1.565
492,-1.565
494,-1.565
496,-1.565
498,-1.565
500,-1.565

File: NIST_FSRI_Gasification_q50_R3_Mass_fluxT.csv
Time,Mass
[s],[g]
0.0,26.689
2.0,26.689
4.0,26.689
6.0,26.689
8.0,26.689
10.0,26.689
12.0,26.689
14.0,26.689
16.0,26.689
18.0,26.689
20.0,26.689
22.0,26.689
24.0,26.689
26.0,26.689
28.0,26.689
30.0,26.689
32.0,26.688
34.0,26.688
36.0,26.687
38.0,26.685
40.0,26.683
42.0,26.679
44.0,26.675
46.0,26.668
48.0,26.659
50.0,26.647
52.0,26.633
54.0,26.615
56.0,26.593
58.0,26.568
60.0,26.540
62.0,26.507
64.0,26.471
66.0,26.432
68.0,26.389
70.0,26.343
72.0,26.295
74.0,26.243
76.0,26.188
78.0,26.131
80.0,26.072
82.0,26.010
84.0,25.946
86.0,25.880
88.0,25.812
90.0,25.742
92.0,25.670
94.0,25.597
96.0,25.521
98.0,25.445
100.0,25.367
102.0,25.287
104.0,25.206
106.0,25.124
108.0,25.040
110.0,24.955
112.0,24.869
114.0,24.782
116.0,24.694
118.0,24.605
120.0,24.514
122.0,24.422
124.0,24.330
126.0,24.236
128.0,24.142
130.0,24.046
132.0,23.949
134.0,23.852
136.0,23.753
138.0,23.654
140.0,23.553
142.0,23.452
144.0,23.350
146.0,23.247
148.0,23.143
150.0,23.038
152.0,22.932
154.0,22.825
156.0,22.718
158.0,22.609
160.0,22.500
162.0,22.390
164.0,22.280
166.0,22.168
168.0,22.056
170.0,21.943
172.0,21.829
174.0,21.714
176.0,21.599
178.0,21.483
180.0,21.366
182.0,21.248
184.0,21.129
186.0,21.010
188.0,20.890
190.0,20.769
192.0,20.647
194.0,20.524
196.0,20.401
198.0,20.277
200.0,20.152
202.0,20.026
204.0,19.899
206.0,19.772
208.0,19.643
210.0,19.514
212.0,19.384
214.0,19.254
216.0,19.122
218.0,18.990
220.0,18.856
222.0,18.722
224.0,18.588
226.0,18.452
228.0,18.315
230.0,18.178
232.0,18.040
234.0,17.901
236.0,17.761
238.0,17.620
240.0,17.479
242.0,17.336
244.0,17.193
246.0,17.049
248.0,16.903
250.0,16.757
252.0,16.610
254.0,16.462
256.0,16.314
258.0,16.164
260.0,16.013
262.0,15.862
264.0,15.709
266.0,15.555
268.0,15.401
270.0,15.245
272.0,15.089
274.0,14.931
276.0,14.773
278.0,14.613
280.0,14.452
282.0,14.291
284.0,14.128
286.0,13.964
288.0,13.799
290.0,13.633
292.0,13.466
294.0,13.298
296.0,13.129
298.0,12.958
300.0,12.787
302.0,12.614
304.0,12.440
306.0,12.265
308.0,12.088
310.0,11.911
312.0,11.732
314.0,11.552
316.0,11.371
318.0,11.188
320.0,11.005
322.0,10.820
324.0,10.633
326.0,10.446
328.0,10.257
330.0,10.067
332.0,9.876
334.0,9.683
336.0,9.490
338.0,9.295
340.0,9.099
342.0,8.901
344.0,8.703
346.0,8.503
348.0,8.302
350.0,8.100
352.0,7.897
354.0,7.693
356.0,7.488
358.0,7.282
360.0,7.075
362.0,6.867
364.0,6.658
366.0,6.448
368.0,6.238
370.0,6.026
372.0,5.814
374.0,5.600
376.0,5.386
378.0,5.171
380.0,4.956
382.0,4.740
384.0,4.523
386.0,4.305
388.0,4.086
390.0,3.867
392.0,3.647
394.0,3.427
396.0,3.205
398.0,2.983
400.0,2.760
402.0,2.537
404.0,2.313
406.0,2.088
408.0,1.863
410.0,1.637
412.0,1.410
414.0,1.182
416.0,0.954
418.0,0.726
420.0,0.497
422.0,0.267
424.0,0.038
426.0,-0.192
428.0,-0.422
430.0,-0.650
432.0,-0.877
434.0,-1.101
436.0,-1.317
438.0,-1.511
440.0,-1.565
442.0,-1.565
444.0,-1.565
446.0,-1.565
448.0,-1.565
450.0,-1.565
452.0,-1.565
454.0,-1.565
456.0,-1.565
458.0,-1.565
460.0,-1.565
462.0,-1.565
464.0,-1.565
466.0,-1.565
468.0,-1.565
470.0,-1.565
472.0,-1.565
474.0,-1.565
476.0,-1.565
478.0,-1.565
480.0,-1.565
482.0,-1.565
484.0,-1.565
486.0,-1.565
488.0,-1.565
490.0,-1.565
492.0,-1.565
494.0,-1.565
496.0,-1.565
498.0,-1.565
500.0,-1.565

File: NIST_FSRI_Gasification_q50_R3_Mass_full.csv
Time,Mass
[s],[g]
0.0,26.689
2.0,26.689
4.0,26.689
6.0,26.689
8.0,26.689
10.0,26.689
12.0,26.689
14.0,26.689
16.0,26.689
18.0,26.689
20.0,26.689
22.0,26.689
24.0,26.689
26.0,26.689
28.0,26.689
30.0,26.689
32.0,26.688
34.0,26.688
36.0,26.687
38.0,26.686
40.0,26.684
42.0,26.680
44.0,26.676
46.0,26.670
48.0,26.662
50.0,26.651
52.0,26.637
54.0,26.621
56.0,26.600
58.0,26.577
60.0,26.549
62.0,26.518
64.0,26.484
66.0,26.446
68.0,26.405
70.0,26.360
72.0,26.313
74.0,26.262
76.0,26.209
78.0,26.153
80.0,26.095
82.0,26.035
84.0,25.972
86.0,25.907
88.0,25.840
90.0,25.771
92.0,25.701
94.0,25.628
96.0,25.554
98.0,25.478
100.0,25.401
102.0,25.323
104.0,25.243
106.0,25.162
108.0,25.079
110.0,24.995
112.0,24.910
114.0,24.824
116.0,24.737
118.0,24.649
120.0,24.559
122.0,24.469
124.0,24.377
126.0,24.284
128.0,24.191
130.0,24.096
132.0,24.000
134.0,23.904
136.0,23.806
138.0,23.708
140.0,23.608
142.0,23.508
144.0,23.407
146.0,23.304
148.0,23.201
150.0,23.097
152.0,22.992
154.0,22.887
156.0,22.780
158.0,22.673
160.0,22.565
162.0,22.456
164.0,22.346
166.0,22.236
168.0,22.124
170.0,22.012
172.0,21.899
174.0,21.786
176.0,21.671
178.0,21.556
180.0,21.440
182.0,21.323
184.0,21.206
186.0,21.087
188.0,20.968
190.0,20.848
192.0,20.727
194.0,20.606
196.0,20.483
198.0,20.360
200.0,20.236
202.0,20.111
204.0,19.986
206.0,19.859
208.0,19.732
210.0,19.604
212.0,19.475
214.0,19.345
216.0,19.215
218.0,19.084
220.0,18.952
222.0,18.819
224.0,18.685
226.0,18.550
228.0,18.415
230.0,18.279
232.0,18.142
234.0,18.004
236.0,17.865
238.0,17.726
240.0,17.585
242.0,17.444
244.0,17.302
246.0,17.159
248.0,17.015
250.0,16.870
252.0,16.724
254.0,16.577
256.0,16.430
258.0,16.281
260.0,16.132
262.0,15.981
264.0,15.830
266.0,15.678
268.0,15.524
270.0,15.370
272.0,15.215
274.0,15.059
276.0,14.902
278.0,14.743
280.0,14.584
282.0,14.424
284.0,14.262
286.0,14.100
288.0,13.937
290.0,13.772
292.0,13.607
294.0,13.440
296.0,13.272
298.0,13.103
300.0,12.933
302.0,12.762
304.0,12.590
306.0,12.416
308.0,12.241
310.0,12.065
312.0,11.888
314.0,11.710
316.0,11.530
318.0,11.350
320.0,11.168
322.0,10.984
324.0,10.800
326.0,10.614
328.0,10.427
330.0,10.239
332.0,10.050
334.0,9.859
336.0,9.667
338.0,9.474
340.0,9.280
342.0,9.084
344.0,8.888
346.0,8.690
348.0,8.491
350.0,8.291
352.0,8.090
354.0,7.888
356.0,7.685
358.0,7.480
360.0,7.275
362.0,7.069
364.0,6.862
366.0,6.654
368.0,6.445
370.0,6.235
372.0,6.025
374.0,5.813
376.0,5.601
378.0,5.388
380.0,5.174
382.0,4.960
384.0,4.744
386.0,4.528
388.0,4.312
390.0,4.094
392.0,3.876
394.0,3.657
396.0,3.438
398.0,3.218
400.0,2.997
402.0,2.775
404.0,2.553
406.0,2.330
408.0,2.106
410.0,1.882
412.0,1.657
414.0,1.432
416.0,1.206
418.0,0.979
420.0,0.752
422.0,0.524
424.0,0.296
426.0,0.068
428.0,-0.161
430.0,-0.388
432.0,-0.615
434.0,-0.838
436.0,-1.050
438.0,-1.221
440.0,-1.353
442.0,-1.452
444.0,-1.521
446.0,-1.558
448.0,-1.565
450.0,-1.565
452.0,-1.565
454.0,-1.565
456.0,-1.565
458.0,-1.565
460.0,-1.565
462.0,-1.565
464.0,-1.565
466.0,-1.565
468.0,-1.565
470.0,-1.565
472.0,-1.565
474.0,-1.565
476.0,-1.565
478.0,-1.565
480.0,-1.565
482.0,-1.565
484.0,-1.565
486.0,-1.565
488.0,-1.565
490.0,-1.565
492.0,-1.565
494.0,-1.565
496.0,-1.565
498.0,-1.565
500.0,-1.565

File: NIST_FSRI_Gasification_q50_R3_Mass_full_rho.csv
Time,Mass
[s],[g]
0.0,26.689
2.0,26.689
4.0,26.689
6.0,26.689
8.0,26.689
10.0,26.689
12.0,26.689
14.0,26.689
16.0,26.689
18.0,26.689
20.0,26.689
22.0,26.689
24.0,26.689
26.0,26.689
28.0,26.689
30.0,26.689
32.0,26.689
34.0,26.688
36.0,26.688
38.0,26.687
40.0,26.686
42.0,26.684
44.0,26.681
46.0,26.676
48.0,26.671
50.0,26.663
52.0,26.653
54.0,26.641
56.0,26.625
58.0,26.607
60.0,26.585
62.0,26.559
64.0,26.531
66.0,26.498
68.0,26.463
70.0,26.424
72.0,26.382
74.0,26.337
76.0,26.289
78.0,26.238
80.0,26.185
82.0,26.129
84.0,26.070
86.0,26.010
88.0,25.947
90.0,25.882
92.0,25.815
94.0,25.746
96.0,25.676
98.0,25.604
100.0,25.530
102.0,25.455
104.0,25.378
106.0,25.299
108.0,25.220
110.0,25.139
112.0,25.056
114.0,24.973
116.0,24.888
118.0,24.802
120.0,24.715
122.0,24.626
124.0,24.537
126.0,24.446
128.0,24.354
130.0,24.261
132.0,24.167
134.0,24.072
136.0,23.976
138.0,23.879
140.0,23.781
142.0,23.682
144.0,23.582
146.0,23.481
148.0,23.378
150.0,23.275
152.0,23.171
154.0,23.066
156.0,22.961
158.0,22.854
160.0,22.746
162.0,22.638
164.0,22.528
166.0,22.418
168.0,22.307
170.0,22.195
172.0,22.082
174.0,21.968
176.0,21.853
178.0,21.738
180.0,21.622
182.0,21.504
184.0,21.386
186.0,21.267
188.0,21.147
190.0,21.027
192.0,20.905
194.0,20.783
196.0,20.659
198.0,20.535
200.0,20.410
202.0,20.284
204.0,20.157
206.0,20.029
208.0,19.901
210.0,19.771
212.0,19.641
214.0,19.509
216.0,19.377
218.0,19.244
220.0,19.110
222.0,18.975
224.0,18.839
226.0,18.703
228.0,18.565
230.0,18.426
232.0,18.287
234.0,18.147
236.0,18.005
238.0,17.863
240.0,17.720
242.0,17.576
244.0,17.431
246.0,17.285
248.0,17.138
250.0,16.990
252.0,16.841
254.0,16.691
256.0,16.541
258.0,16.389
260.0,16.236
262.0,16.082
264.0,15.927
266.0,15.771
268.0,15.614
270.0,15.456
272.0,15.297
274.0,15.137
276.0,14.975
278.0,14.813
280.0,14.649
282.0,14.485
284.0,14.319
286.0,14.152
288.0,13.984
290.0,13.815
292.0,13.645
294.0,13.474
296.0,13.301
298.0,13.127
300.0,12.952
302.0,12.776
304.0,12.599
306.0,12.420
308.0,12.240
310.0,12.059
312.0,11.877
314.0,11.693
316.0,11.509
318.0,11.322
320.0,11.135
322.0,10.947
324.0,10.757
326.0,10.566
328.0,10.374
330.0,10.180
332.0,9.986
334.0,9.790
336.0,9.593
338.0,9.395
340.0,9.196
342.0,8.996
344.0,8.795
346.0,8.592
348.0,8.389
350.0,8.184
352.0,7.979
354.0,7.773
356.0,7.565
358.0,7.357
360.0,7.148
362.0,6.938
364.0,6.728
366.0,6.516
368.0,6.304
370.0,6.091
372.0,5.877
374.0,5.663
376.0,5.447
378.0,5.231
380.0,5.015
382.0,4.797
384.0,4.579
386.0,4.361
388.0,4.141
390.0,3.921
392.0,3.701
394.0,3.479
396.0,3.258
398.0,3.035
400.0,2.812
402.0,2.588
404.0,2.363
406.0,2.138
408.0,1.912
410.0,1.686
412.0,1.459
414.0,1.231
416.0,1.003
418.0,0.774
420.0,0.545
422.0,0.316
424.0,0.087
426.0,-0.143
428.0,-0.372
430.0,-0.599
432.0,-0.823
434.0,-1.038
436.0,-1.212
438.0,-1.347
440.0,-1.448
442.0,-1.520
444.0,-1.557
446.0,-1.565
448.0,-1.565
450.0,-1.565
452.0,-1.565
454.0,-1.565
456.0,-1.565
458.0,-1.565
460.0,-1.565
462.0,-1.565
464.0,-1.565
466.0,-1.565
468.0,-1.565
470.0,-1.565
472.0,-1.565
474.0,-1.565
476.0,-1.565
478.0,-1.565
480.0,-1.565
482.0,-1.565
484.0,-1.565
486.0,-1.565
488.0,-1.565
490.0,-1.565
492.0,-1.565
494.0,-1.565
496.0,-1.565
498.0,-1.565
500.0,-1.565

File: NIST_FSRI_Gasification_q50_R3_Mass_simple.csv
Time,Mass
[s],[g]
0,26.690
2,26.690
4,26.690
6,26.690
8,26.690
10,26.690
12,26.690
14,26.690
16,26.690
18,26.690
20,26.690
22,26.690
24,26.690
26,26.690
28,26.689
30,26.688
32,26.686
34,26.684
36,26.680
38,26.675
40,26.667
42,26.656
44,26.642
46,26.625
48,26.604
50,26.579
52,26.550
54,26.516
56,26.479
58,26.438
60,26.394
62,26.346
64,26.295
66,26.241
68,26.184
70,26.125
72,26.063
74,25.998
76,25.932
78,25.864
80,25.793
82,25.721
84,25.647
86,25.572
88,25.494
90,25.416
92,25.335
94,25.254
96,25.171
98,25.087
100,25.001
102,24.915
104,24.827
106,24.738
108,24.648
110,24.557
112,24.465
114,24.372
116,24.278
118,24.183
120,24.087
122,23.990
124,23.892
126,23.793
128,23.694
130,23.593
132,23.492
134,23.390
136,23.287
138,23.183
140,23.078
142,22.973
144,22.866
146,22.759
148,22.651
150,22.543
152,22.433
154,22.323
156,22.212
158,22.100
160,21.987
162,21.874
164,21.760
166,21.645
168,21.529
170,21.413
172,21.295
174,21.177
176,21.058
178,20.939
180,20.818
182,20.697
184,20.575
186,20.453
188,20.329
190,20.205
192,20.080
194,19.954
196,19.827
198,19.699
200,19.571
202,19.442
204,19.312
206,19.181
208,19.050
210,18.917
212,18.784
214,18.650
216,18.515
218,18.379
220,18.243
222,18.105
224,17.967
226,17.828
228,17.688
230,17.547
232,17.405
234,17.263
236,17.119
238,16.975
240,16.829
242,16.683
244,16.536
246,16.388
248,16.239
250,16.089
252,15.938
254,15.786
256,15.633
258,15.479
260,15.324
262,15.168
264,15.011
266,14.854
268,14.695
270,14.535
272,14.373
274,14.211
276,14.048
278,13.884
280,13.718
282,13.552
284,13.384
286,13.215
288,13.045
290,12.874
292,12.702
294,12.528
296,12.354
298,12.178
300,12.001
302,11.822
304,11.642
306,11.462
308,11.279
310,11.096
312,10.911
314,10.725
316,10.538
318,10.349
320,10.159
322,9.968
324,9.776
326,9.582
328,9.387
330,9.191
332,8.994
334,8.795
336,8.595
338,8.394
340,8.192
342,7.989
344,7.784
346,7.579
348,7.372
350,7.165
352,6.956
354,6.747
356,6.537
358,6.325
360,6.113
362,5.900
364,5.686
366,5.471
368,5.256
370,5.039
372,4.822
374,4.605
376,4.386
378,4.167
380,3.947
382,3.726
384,3.505
386,3.282
388,3.060
390,2.836
392,2.612
394,2.387
396,2.161
398,1.935
400,1.707
402,1.480
404,1.251
406,1.022
408,0.793
410,0.563
412,0.332
414,0.101
416,-0.130
418,-0.361
420,-0.591
422,-0.820
424,-1.046
426,-1.266
428,-1.470
430,-1.565
432,-1.565
434,-1.565
436,-1.565
438,-1.565
440,-1.565
442,-1.565
444,-1.565
446,-1.565
448,-1.565
450,-1.565
452,-1.565
454,-1.565
456,-1.565
458,-1.565
460,-1.565
462,-1.565
464,-1.565
466,-1.565
468,-1.565
470,-1.565
472,-1.565
474,-1.565
476,-1.565
478,-1.565
480,-1.565
482,-1.565
484,-1.565
486,-1.565
488,-1.565
490,-1.565
492,-1.565
494,-1.565
496,-1.565
498,-1.565
500,-1.565

File: NIST_FSRI_Gasification_q50_R3_Mass_simple_rho.csv
Time,Mass
[s],[g]
0.0,26.689
2.0,26.689
4.0,26.689
6.0,26.689
8.0,26.689
10.0,26.689
12.0,26.689
14.0,26.689
16.0,26.689
18.0,26.689
20.0,26.689
22.0,26.689
24.0,26.689
26.0,26.689
28.0,26.688
30.0,26.688
32.0,26.687
34.0,26.685
36.0,26.683
38.0,26.679
40.0,26.674
42.0,26.667
44.0,26.657
46.0,26.645
48.0,26.629
50.0,26.610
52.0,26.588
54.0,26.561
56.0,26.531
58.0,26.497
60.0,26.459
62.0,26.418
64.0,26.373
66.0,26.326
68.0,26.275
70.0,26.222
72.0,26.165
74.0,26.107
76.0,26.046
78.0,25.983
80.0,25.917
82.0,25.850
84.0,25.781
86.0,25.710
88.0,25.637
90.0,25.562
92.0,25.486
94.0,25.409
96.0,25.330
98.0,25.250
100.0,25.168
102.0,25.085
104.0,25.001
106.0,24.915
108.0,24.828
110.0,24.741
112.0,24.652
114.0,24.562
116.0,24.470
118.0,24.378
120.0,24.285
122.0,24.191
124.0,24.095
126.0,23.999
128.0,23.902
130.0,23.804
132.0,23.705
134.0,23.604
136.0,23.504
138.0,23.402
140.0,23.299
142.0,23.195
144.0,23.091
146.0,22.985
148.0,22.879
150.0,22.772
152.0,22.663
154.0,22.554
156.0,22.445
158.0,22.334
160.0,22.222
162.0,22.110
164.0,21.997
166.0,21.883
168.0,21.768
170.0,21.652
172.0,21.535
174.0,21.418
176.0,21.299
178.0,21.180
180.0,21.060
182.0,20.939
184.0,20.817
186.0,20.694
188.0,20.571
190.0,20.446
192.0,20.321
194.0,20.195
196.0,20.068
198.0,19.940
200.0,19.811
202.0,19.682
204.0,19.551
206.0,19.420
208.0,19.287
210.0,19.154
212.0,19.020
214.0,18.885
216.0,18.749
218.0,18.612
220.0,18.475
222.0,18.336
224.0,18.196
226.0,18.056
228.0,17.915
230.0,17.772
232.0,17.629
234.0,17.485
236.0,17.339
238.0,17.193
240.0,17.046
242.0,16.898
244.0,16.749
246.0,16.599
248.0,16.447
250.0,16.295
252.0,16.142
254.0,15.988
256.0,15.833
258.0,15.676
260.0,15.519
262.0,15.360
264.0,15.201
266.0,15.040
268.0,14.879
270.0,14.716
272.0,14.552
274.0,14.387
276.0,14.221
278.0,14.053
280.0,13.885
282.0,13.715
284.0,13.544
286.0,13.372
288.0,13.199
290.0,13.024
292.0,12.849
294.0,12.672
296.0,12.493
298.0,12.314
300.0,12.133
302.0,11.951
304.0,11.768
306.0,11.584
308.0,11.398
310.0,11.211
312.0,11.023
314.0,10.833
316.0,10.642
318.0,10.450
320.0,10.257
322.0,10.062
324.0,9.867
326.0,9.670
328.0,9.472
330.0,9.272
332.0,9.072
334.0,8.871
336.0,8.668
338.0,8.464
340.0,8.260
342.0,8.054
344.0,7.847
346.0,7.640
348.0,7.431
350.0,7.221
352.0,7.011
354.0,6.800
356.0,6.588
358.0,6.375
360.0,6.161
362.0,5.947
364.0,5.732
366.0,5.516
368.0,5.299
370.0,5.082
372.0,4.864
374.0,4.645
376.0,4.426
378.0,4.206
380.0,3.985
382.0,3.763
384.0,3.541
386.0,3.319
388.0,3.095
390.0,2.871
392.0,2.646
394.0,2.421
396.0,2.195
398.0,1.968
400.0,1.741
402.0,1.513
404.0,1.285
406.0,1.056
408.0,0.826
410.0,0.596
412.0,0.365
414.0,0.135
416.0,-0.096
418.0,-0.327
420.0,-0.557
422.0,-0.785
424.0,-1.011
426.0,-1.232
428.0,-1.438
430.0,-1.565
432.0,-1.565
434.0,-1.565
436.0,-1.565
438.0,-1.565
440.0,-1.565
442.0,-1.565
444.0,-1.565
446.0,-1.565
448.0,-1.565
450.0,-1.565
452.0,-1.565
454.0,-1.565
456.0,-1.565
458.0,-1.565
460.0,-1.565
462.0,-1.565
464.0,-1.565
466.0,-1.565
468.0,-1.565
470.0,-1.565
472.0,-1.565
474.0,-1.565
476.0,-1.565
478.0,-1.565
480.0,-1.565
482.0,-1.565
484.0,-1.565
486.0,-1.565
488.0,-1.565
490.0,-1.565
492.0,-1.565
494.0,-1.565
496.0,-1.565
498.0,-1.565
500.0,-1.565

File: NIST_FSRI_Gasification_q50_T1_Temp_full.csv
Time,T_back
[s],[K]
0,292.1
2,292.1
4,292.1
6,292.1
8,292.1
10,292.1
12,292.1
14,292.1
16,292.1
18,292.1
20,292.1
22,292.2
24,292.3
26,292.4
28,292.6
30,292.9
32,293.2
34,293.6
36,294.2
38,294.8
40,295.5
42,296.3
44,297.2
46,298.3
48,299.4
50,300.6
52,301.9
54,303.3
56,304.8
58,306.4
60,308.1
62,309.9
64,311.7
66,313.6
68,315.6
70,317.6
72,319.7
74,321.9
76,324.1
78,326.4
80,328.7
82,331.0
84,333.4
86,335.8
88,338.2
90,340.7
92,343.2
94,345.7
96,348.2
98,350.7
100,353.3
102,355.9
104,358.4
106,361.0
108,363.6
110,366.2
112,368.8
114,371.4
116,374.0
118,376.6
120,379.2
122,381.8
124,384.4
126,386.9
128,389.5
130,392.1
132,394.7
134,397.2
136,399.8
138,402.3
140,404.9
142,407.4
144,409.9
146,412.5
148,415.0
150,417.5
152,420.0
154,422.5
156,425.0
158,427.4
160,429.9
162,432.4
164,434.8
166,437.3
168,439.7
170,442.2
172,444.6
174,447.0
176,449.4
178,451.8
180,454.2
182,456.6
184,459.0
186,461.4
188,463.8
190,466.1
192,468.5
194,470.8
196,473.2
198,475.5
200,477.8
202,480.2
204,482.5
206,484.8
208,487.1
210,489.4
212,491.7
214,494.0
216,496.3
218,498.6
220,500.8
222,503.1
224,505.4
226,507.6
228,509.9
230,512.1
232,514.4
234,516.6
236,518.8
238,521.0
240,523.2
242,525.4
244,527.6
246,529.8
248,532.0
250,534.2
252,536.3
254,538.5
256,540.7
258,542.8
260,544.9
262,547.0
264,549.1
266,551.2
268,553.3
270,555.4
272,557.4
274,559.4
276,561.5
278,563.5
280,565.5
282,567.4
284,569.4
286,571.3
288,573.2
290,575.1
292,577.0
294,578.8
296,580.7
298,582.5
300,584.2
302,586.0
304,587.7
306,589.4
308,591.1
310,592.8
312,594.4
314,596.0
316,597.6
318,599.2
320,600.8
322,602.3
324,603.8
326,605.4
328,606.8
330,608.3
332,609.8
334,611.3
336,612.8
338,614.3
340,615.7
342,617.2
344,618.7
346,620.2
348,621.8
350,623.3
352,624.9
354,626.5
356,628.1
358,629.8
360,631.5
362,633.3
364,635.1
366,637.0
368,638.9
370,640.9
372,643.0
374,645.2
376,647.5
378,649.9
380,652.4
382,655.0
384,657.9
386,660.9
388,664.2
390,667.7
392,671.6
394,675.9
396,680.8
398,686.4
400,693.2
402,701.9
404,714.1
406,736.7
408,770.5
410,812.0
412,829.8
414,840.7
416,848.4
418,854.2
420,858.8
422,862.5
424,865.5
426,868.2
428,870.4
430,872.4
432,874.2
434,875.8
436,877.3
438,878.6
440,879.8
442,880.9
444,882.0
446,882.9
448,883.8
450,884.7
452,885.5
454,886.2
456,886.9
458,887.6
460,888.2
462,888.8
464,889.4
466,889.9
468,890.5
470,891.0
472,891.5
474,891.9
476,892.4
478,892.8
480,893.2
482,893.6
484,894.0
486,894.4
488,894.7
490,895.1
492,895.4
494,895.7
496,896.1
498,896.4
500,896.7