Folder: matl-db/Non-charring/PMMA/DBI_Lund

File: DBI_Lund_TGA_N2_20K_1.csv
Time,Temperature,Mass
[s],[K],[mg]
0.00,299.357,5.80E+00
10.00,299.351,5.79E+00
20.00,299.605,5.79E+00
30.00,300.466,5.79E+00
40.00,302.1607,5.79312
50.00,304.741,5.80597
60.00,308.067,5.77891
70.00,311.936,5.79278
80.00,316.128,5.79459
90.00,320.463,5.79424
100.00,324.8,5.7823
110.00,329.049,5.78444
120.00,333.177,5.79131
130.00,337.175,5.78501
140.00,341.048,5.78444
150.00,344.819,5.78038
160.00,348.506,5.77948
170.00,352.124,5.78263
180.00,355.716,5.78218
190.00,359.295,5.77587
200.00,362.876,5.78027
210.00,366.458,5.77993
220.00,370.034,5.77813
230.00,373.605,5.77914
240.00,377.147,5.77722
250.00,380.652,5.77903
260.00,384.117,5.77519
270.00,387.55,5.77835
280.00,390.974,5.78399
290.00,394.347,5.77069
300.00,397.725,5.77147
310.00,401.0903,5.77316
320.00,404.449,5.77261
330.00,407.802,5.77474
340.00,411.152,5.7619
350.00,414.503,5.77114
360.00,417.849,5.76392
370.00,421.202,5.76573
380.00,424.551,5.75964
390.00,427.889,5.75931
400.00,431.23,5.75987
410.00,434.561,5.75479
420.00,437.879,5.75096
430.00,441.201,5.75029
440.00,444.518,5.74735
450.00,447.84,5.74239
460.00,451.156,5.73766
470.00,454.482,5.73867
480.00,457.807,5.73146
490.00,461.141,5.71568
500.00,464.483,5.71613
510.00,467.825,5.71884
520.00,471.162,5.70124
530.00,474.5011,5.699
540.00,477.835,5.6928
550.00,481.168,5.68738
560.00,484.494,5.67386
570.00,487.83,5.66867
580.00,491.163,5.64748
590.00,494.5,5.64511
600.00,497.824,5.63598
610.00,501.147,5.61908
620.00,504.474,5.61693
630.00,507.801,5.60622
640.00,511.13,5.60138
650.00,514.45,5.59111
660.00,517.7878,5.59698
670.00,521.114,5.58841
680.00,524.447,5.58774
690.00,527.773,5.58514
700.00,531.106,5.57444
710.00,534.444,5.57613
720.00,537.777,5.56564
730.00,541.126,5.56407
740.00,544.482,5.55358
750.00,547.844,5.54918
760.00,551.1979,5.53983
770.00,554.5457,5.53453
780.00,557.879,5.51627
790.00,561.207,5.50184
800.00,564.533,5.49136
810.00,567.847,5.4625
820.00,571.1572,5.44378
830.00,574.462,5.42778
840.00,577.775,5.40523
850.00,581.081,5.3695
860.00,584.389,5.35361
870.00,587.703,5.31946
880.00,591.012,5.28992
890.00,594.337,5.26151
900.00,597.668,5.21113
910.00,601.005,5.16829
920.00,604.332,5.10437
930.00,607.658,5.03944
940.00,610.991,4.95569
950.00,614.314,4.86033
960.00,617.6436,4.75064
970.00,620.967,4.597
980.00,624.2852,4.45057
990.00,627.6,4.27055
1000.00,630.92,4.06708
1010.00,634.233,3.83645
1020.00,637.555,3.58237
1030.00,640.877,3.30991
1040.00,644.207,3.02867
1050.00,647.54,2.73491
1060.00,650.882,2.44555
1070.00,654.234,2.16047
1080.00,657.5868,1.88813
1090.00,660.9393,1.5991
1100.00,664.287,1.32056
1110.00,667.641,1.05814
1120.00,670.991,0.8278398
1130.00,674.344,0.63429
1140.00,677.698,0.47118
1150.00,681.044,0.34278
1160.00,684.386,0.24799
1170.00,687.731,0.1817
1180.00,691.063,0.13774
1190.00,694.382,0.09478998
1200.00,697.723,0.06852004
1210.00,701.07,0.05916986
1220.00,704.392,0.04935974
1230.00,707.697,0.03325024
1240.00,710.989,0.03561026
1250.00,714.285,0.02783014
1260.00,717.591,0.02478978
1270.00,720.902,0.02231028
1280.00,724.225,0.01971014
1290.00,727.559,0.02220008
1300.00,730.895,0.0238902
1310.00,734.237,0.0244499
1320.00,737.58,0.01904024
1330.00,740.919,0.02208002
1340.00,744.267,0.01735012
1350.00,747.604,0.0157702
1360.00,750.94,0.02084984
1370.00,754.264,0.0224199
1380.00,757.6,0.01701024
1390.00,760.938,0.01938012
1400.00,764.2629,0.01769
1410.00,767.599,0.01756994
1420.00,770.9201,0.00911992
1430.00,774.2482,0.02083998
1440.00,777.578,0.00878004
1450.00,780.91,0.02635984
1460.00,784.246,0.01306972
1470.00,787.581,0.01305986
1480.00,790.914,0.01656016
1490.00,794.252,0.01644996
1500.00,797.588,0.01081004
1510.00,800.927,0.01644996
1520.00,804.266,0.01904024
1530.00,807.601,0.01262022
1540.00,810.932,0.01904024
1550.00,814.268,0.02196982
1560.00,817.5948,0.01341018
1570.00,820.92,0.0244499
1580.00,824.244,0.0265901
1590.00,827.565,0.00596994
1600.00,830.897,0.00935018
1610.00,834.229,0.01069984
1620.00,837.557,0.0021286
1630.00,840.8926,0.01002008
1640.00,844.229,0.00551
1650.00,847.565,0.01363
1660.00,850.901,0.0048372
1670.00,854.239,0.00720998
1680.00,857.574,0.01126012
1690.00,860.916,0.0051794
1700.00,864.25,0.01048002
1710.00,867.587,0.01002008
1720.00,870.92,0.01103972
1730.00,874.259,0.02760974
1740.00,877.594,0.00990988
1750.00,880.926,-0.0122902
1760.00,884.263,0.02062016
1770.00,887.599,0.0039382
1780.00,890.932,-0.0056492
1790.00,894.265,0.03775974
1800.00,897.601,0.03719018
1810.00,900.934,0.0006728
1820.00,904.266,0.01002008
1830.00,907.59,0.01690004
1840.00,910.92,-0.00879976
1850.00,914.255,-0.00666014
1860.00,917.598,0.01566
1870.00,920.936,-0.01038026
1880.00,924.275,0.00608014
1890.00,927.613,0.005742
1900.00,930.953,0.0178002
1910.00,934.292,0.0048372
1920.00,937.643,0.01271998
1930.00,940.9696,-0.01218
1940.00,944.302,0.00754
1950.00,947.634,0.0034916
1960.00,950.9671,-0.00845988
1970.00,954.296,0.01295024
1980.00,957.627,-0.01364972
1990.00,960.959,0.0046226
2000.00,964.288,0.01611008
2010.00,967.621,0.00730974
2020.00,970.955,0.00799008
2030.00,974.291,-0.0036192
2040.00,977.628,0.00856022
2050.00,980.966,-0.0040716
2060.00,984.3013,0.00348
2070.00,987.639,0.0048372
2080.00,990.98,0.01103972
2090.00,994.315,0.0051794
2100.00,997.655,0.00629996
2110.00,1000.99,0.01284004
2120.00,1004.33,0.0038222
2130.00,1007.66,0.0157702
2140.00,1011,0.0056318
2150.00,1014.34,0.00900972
2160.00,1017.67,0.0183599
2170.00,1021,0.0051794
2180.00,1024.34,0.01701024
2190.00,1027.67,0.0041586
2200.00,1031.01,0.00866984
2210.00,1034.34,0.00630982
2220.00,1037.68,-0.00733004
2230.00,1041.02,0.01914986
2240.00,1044.35,0.0117102
2250.00,1047.68,0.00675004
2260.00,1051.02,0.01329012
2270.00,1054.35,0.002581
2280.00,1057.69,0.0047212
2290.00,1061.03,0.02456996
2300.00,1064.37,-0.0045182
2310.00,1067.71,0.02354974
2320.00,1071.04,0.0052896
2330.00,1074.38,0.0050576
2340.00,1077.71,0.0030276
2350.00,1081.05,-0.002262
2360.00,1084.38,0.00697972
2370.00,1087.72,0.00787988
2380.00,1091.06,0.00866984
2390.00,1094.39,0.01498024
2400.00,1097.72,0.0056318
2410.00,1101.06,0.0114898
2420.00,1104.4,0.01059022
2430.00,1107.73,0.00799994
2440.00,1111.07,0.0017922
2450.00,1114.41,0.00732018
2460.00,1117.75,0.01183026
2470.00,1121.08,-0.0053012
2480.00,1124.42,0.00923998
2490.00,1127.76,0.0051794
2500.00,1131.09,0.0135198
2510.00,1134.43,0.0035902
2520.00,1137.78,0.01396002
2530.00,1141.11,0.01272984
2540.00,1144.44,0.03020002
2550.00,1147.77,0.02411002
2560.00,1151.1,0.0009976
2570.00,1154.43,-0.0047386
2580.00,1157.76,0.005742
2590.00,1161.08,0.01904024
2600.00,1164.4,0.0038222
2610.00,1167.73,0.0009976
2620.00,1171.05,-0.01657988
2630.00,1174.38,0.02478978
2640.00,1177.71,-0.0229999
2650.00,1181.03,-0.0016994
2660.00,1184.37,0.01611008
2670.00,1187.7,-0.004408
2680.00,1191.03,0.00923012
2690.00,1194.36,0.004611
2700.00,1197.69,0.02771994
2710.00,1201.02,-0.005191
2720.00,1204.35,0.00766006
2730.00,1207.69,0.01668022
2740.00,1211.02,0.0048314
2750.00,1214.34,0.01059022
2760.00,1217.68,0.0038222
2770.00,1221.01,0.0030392
2774.00,1222.36,0.0096802

File: DBI_Lund_TGA_N2_20K_3.csv
Time,Temperature,Mass
[s],[K],[mg]
0.00,298.33,5.50E+00
10.00,298.3747,5.43E+00
20.00,298.6668,5.43E+00
30.00,299.5878,5.43E+00
40.00,301.3823,5.44E+00
50.00,304.087,5.43485
60.00,307.529,5.44161
70.00,311.515,5.44352
80.00,315.824,5.44049
90.00,320.259,5.43811
100.00,324.673,5.43304
110.00,328.99,5.4326
120.00,333.1669,5.43191
130.00,337.201,5.43045
140.00,341.112,5.42606
150.00,344.893,5.42335
160.00,348.59,5.41963
170.00,352.218,5.42098
180.00,355.813,5.42098
190.00,359.389,5.41827
200.00,362.972,5.41726
210.00,366.5381,5.41692
220.00,370.11,5.41726
230.00,373.671,5.41794
240.00,377.208,5.41501
250.00,380.712,5.41703
260.00,384.182,5.41568
270.00,387.6141,5.41636
280.00,391.03,5.41963
290.00,394.407,5.40791
300.00,397.783,5.41173
310.00,401.145,5.41173
320.00,404.495,5.41343
330.00,407.849,5.4123
340.00,411.196,5.4096
350.00,414.544,5.40813
360.00,417.892,5.40565
370.00,421.232,5.40599
380.00,424.58,5.40046
390.00,427.92,5.39945
400.00,431.2552,5.39596
410.00,434.586,5.39494
420.00,437.908,5.3928
430.00,441.217,5.38875
440.00,444.529,5.38321
450.00,447.848,5.38288
460.00,451.1678,5.37499
470.00,454.498,5.37127
480.00,457.826,5.35706
490.00,461.1661,5.34726
500.00,464.511,5.34614
510.00,467.849,5.33667
520.00,471.186,5.32347
530.00,474.525,5.31694
540.00,477.865,5.306
550.00,481.2,5.30037
560.00,484.5301,5.28808
570.00,487.852,5.28052
580.00,491.185,5.25809
590.00,494.51,5.25595
600.00,497.831,5.24513
610.00,501.161,5.2386
620.00,504.492,5.23262
630.00,507.824,5.22653
640.00,511.149,5.22574
650.00,514.478,5.21931
660.00,517.8039,5.21762
670.00,521.135,5.21492
680.00,524.473,5.2112
690.00,527.805,5.21086
700.00,531.14,5.20545
710.00,534.482,5.20275
720.00,537.827,5.19632
730.00,541.163,5.19351
740.00,544.497,5.18685
750.00,547.832,5.18122
760.00,551.152,5.1722
770.00,554.482,5.16577
780.00,557.809,5.15394
790.00,561.131,5.14143
800.00,564.454,5.13196
810.00,567.777,5.1128
820.00,571.096,5.0943
830.00,574.4238,5.0748
840.00,577.744,5.05586
850.00,581.079,5.0323
860.00,584.406,5.00898
870.00,587.736,4.98463
880.00,591.063,4.95712
890.00,594.4,4.92973
900.00,597.727,4.89039
910.00,601.063,4.8453
920.00,604.387,4.78927
930.00,607.713,4.72986
940.00,611.039,4.65355
950.00,614.364,4.56586
960.00,617.689,4.46598
970.00,621.012,4.32789
980.00,624.338,4.18124
990.00,627.654,4.01237
1000.00,630.98,3.81669
1010.00,634.3007,3.59575
1020.00,637.63,3.33208
1030.00,640.959,3.09074
1040.00,644.287,2.80995
1050.00,647.625,2.52622
1060.00,650.9679,2.2301
1070.00,654.304,1.94468
1080.00,657.65,1.66445
1090.00,660.997,1.39695
1100.00,664.343,1.10759
1110.00,667.689,0.8622999
1120.00,671.045,0.64812
1130.00,674.396,0.4789202
1140.00,677.747,0.3376802
1150.00,681.09,0.23261
1160.00,684.433,0.14526
1170.00,687.765,0.08991015
1180.00,691.09,0.0434599
1190.00,694.418,0.01247015
1200.00,697.735,-1.19E-02
1210.00,701.06,-2.80E-02
1220.00,704.373,-3.71E-02
1230.00,707.69,-4.83E-02
1240.00,711.005,-0.0531399
1250.00,714.332,-0.05438015
1260.00,717.659,-0.0584298
1270.00,720.9841,-0.0568502
1280.00,724.305,-0.05956995
1290.00,727.628,-0.05855025
1300.00,730.958,-0.0582098
1310.00,734.287,-0.0578699
1320.00,737.628,-0.05923005
1330.00,740.967,-0.0576499
1340.00,744.301,-0.05956005
1350.00,747.638,-0.06193
1360.00,750.971,-0.06373015
1370.00,754.2981,-0.0568601
1380.00,757.632,-0.05866025
1390.00,760.963,-0.05900015
1400.00,764.2972,-0.0609202
1410.00,767.623,-0.05978995
1420.00,770.95,-0.0668899
1430.00,774.281,-0.0580998
1440.00,777.614,-0.0671099
1450.00,780.938,-0.04953025
1460.00,784.271,-0.06440995
1470.00,787.608,-0.05923005
1480.00,790.941,-0.05989995
1490.00,794.272,-0.05922015
1500.00,797.61,-0.0612502
1510.00,800.951,-0.05877025
1520.00,804.28,-0.05967995
1530.00,807.618,-0.05945005
1540.00,810.957,-0.0621599
1550.00,814.298,-0.05483005
1560.00,817.626,-0.05911015
1570.00,820.958,-0.06045985
1580.00,824.288,-0.05617975
1590.00,827.62,-0.06451995
1600.00,830.952,-0.06306025
1610.00,834.2827,-0.0616
1620.00,837.6032,-0.05990985
1630.00,840.941,-0.05956995
1640.00,844.279,-0.06046975
1650.00,847.604,-0.06429995
1660.00,850.945,-0.06056985
1670.00,854.2767,-0.05572985
1680.00,857.612,-5.99E-02
1690.00,860.9471,-6.13E-02
1700.00,864.28,-6.23E-02
1710.00,867.614,-5.97E-02
1720.00,870.945,-5.54E-02
1730.00,874.279,-4.36E-02
1740.00,877.6157,-6.07E-02
1750.00,880.951,-7.99E-02
1760.00,884.293,-5.66E-02
1770.00,887.625,-5.84E-02
1780.00,890.961,-6.85E-02
1790.00,894.297,-3.18E-02
1800.00,897.635,-3.17E-02
1810.00,900.972,-6.80E-02
1820.00,904.304,-6.13E-02
1830.00,907.645,-5.97E-02
1840.00,910.971,-6.40E-02
1850.00,914.303,-6.40E-02
1860.00,917.641,-6.06E-02
1870.00,920.972,-0.0764698
1880.00,924.3058,-0.0613602
1890.00,927.64,-0.06034985
1900.00,930.972,-0.0572
1910.00,934.302,-0.0580998
1920.00,937.642,-0.0608102
1930.00,940.975,-0.06813015
1940.00,944.313,-0.0612502
1950.00,947.649,-0.06090975
1960.00,950.982,-0.06666
1970.00,954.313,-0.05855025
1980.00,957.65,-0.06057975
1990.00,960.986,-0.05505005
2000.00,964.323,-0.05527995
2010.00,967.6632,-0.0627198
2020.00,971,-0.05989995
2030.00,974.338,-0.05606975
2040.00,977.674,-0.05549995
2050.00,981.002,-0.06171
2060.00,984.343,-0.06035975
2070.00,987.6776,-0.05900015
2080.00,991.008,-0.05043005
2090.00,994.34,-0.06193
2100.00,997.674,-0.0613701
2110.00,1001.01,-0.05978995
2120.00,1004.34,-0.05900015
2130.00,1007.67,-0.05121985
2140.00,1011.01,-0.06090975
2150.00,1014.34,-0.05956005
2160.00,1017.68,-0.05527995
2170.00,1021.02,-0.0568601
2180.00,1024.35,-0.05934005
2190.00,1027.69,-0.0577599
2200.00,1031.03,-0.0583198
2210.00,1034.37,-0.05121985
2220.00,1037.71,-0.0672199
2230.00,1041.05,-0.05121985
2240.00,1044.39,-0.05889015
2250.00,1047.72,-0.0572
2260.00,1051.06,-0.05483005
2270.00,1054.4,-0.06034985
2280.00,1057.73,-0.05572985
2290.00,1061.07,-0.05549995
2300.00,1064.4,-0.0569701
2310.00,1067.74,-0.0533698
2320.00,1071.07,-0.05404025
2330.00,1074.41,-0.06440995
2340.00,1077.74,-0.0517902
2350.00,1081.07,-0.0621599
2360.00,1084.41,-0.05605985
2370.00,1087.75,-0.05967005
2380.00,1091.08,-0.0536998
2390.00,1094.43,-0.05404025
2400.00,1097.76,-0.0569701
2410.00,1101.1,-0.0570801
2420.00,1104.43,-0.05753
2430.00,1107.76,-0.05449015
2440.00,1111.09,-0.04007025
2450.00,1114.42,-0.0583198
2460.00,1117.749,-0.06001985
2470.00,1121.08,-0.06090975
2480.00,1124.41,-0.05899025
2490.00,1127.75,-0.05572985
2500.00,1131.09,-0.04085015
2510.00,1134.42,-0.06182
2520.00,1137.76,-0.04648985
2530.00,1141.09,-0.05967005
2540.00,1144.43,-0.04197985
2550.00,1147.77,-0.05911015
2560.00,1151.1,-0.05415025
2570.00,1154.44,-0.05449015
2580.00,1157.77,-0.05878015
2590.00,1161.11,-0.0565202
2600.00,1164.43,-0.05978995
2610.00,1167.76,-0.05527995
2620.00,1171.09,-0.0672298
2630.00,1174.43,-0.04942025
2640.00,1177.75,-0.06835015
2650.00,1181.08,-0.05900015
2660.00,1184.41,-0.05709
2670.00,1187.74,-0.0534798
2680.00,1191.06,-0.04536015
2690.00,1194.39,-0.05144975
2700.00,1197.72,-0.03329975
2710.00,1201.05,-0.0577599
2720.00,1204.38,-0.07916975
2730.00,1207.72,-0.0582098
2740.00,1211.05,-0.0533698
2750.00,1214.39,-0.04715975
2760.00,1217.73,-0.05415025
2770.00,1221.05,-0.0432102
2774.00,1222.39,-0.0612601