Folder: matl-db/Non-charring/PMMA/Edinburgh

File: Edinburgh_Cone_25kW_1.csv
Time,Mass,HRR,Back Temp
[s],[g],[kW/m2],[C]
0,68.4,0.09,13.1
5.07,69.93,0.09,13.1
10.14,69.94,3.15,13
15.21,69.97,2.96,13.1
20.28,70,3.07,13.1
25.35,70.01,3.04,13.1
30.42,69.99,3.08,13.2
35.49,69.99,6.38,13.2
40.56,41.29,6.17,13.3
45.63,43.58,6.2,13.3
50.7,42.7,2.64,13.4
55.77,42.67,2.75,13.5
60.84,42.64,-0.57,13.6
66.92,42.56,-0.5,13.8
71.99,42.46,-0.29,13.9
77.58,42.37,-0.16,14.1
82.13,42.3,-0.03,14.3
87.2,42.24,0.02,14.5
92.29,42.16,0.19,14.7
97.36,42.07,0.09,14.9
102.43,41.88,-0.1,15.1
107.5,41.38,0.01,15.4
112.57,40.81,0.01,15.7
117.64,40.52,11.33,16
122.71,39.95,56.61,16.3
127.78,39.35,111.67,16.6
132.85,38.62,160.04,17.1
138.93,37.9,216.01,17.7
144,37.27,232.39,18.2
149.07,36.62,244.08,18.6
154.14,35.98,266.98,19.2
159.21,35.36,277.78,19.8
164.28,34.72,286.27,20.3
169.48,34.06,295.31,20.9
174.42,33.3,296.23,21.6
179.67,32.76,297.72,22.2
184.56,32.11,296.85,22.8
189.63,31.46,297.34,23.4
194.7,30.78,302.53,24.1
199.77,30.07,318.21,24.8
204.84,29.43,316.86,25.4
209.91,28.73,300.52,26.1
214.98,28.08,316.14,26.8
220.05,27.38,325.59,27.5
225.12,26.7,316.08,28.2
230.19,26.01,317.09,28.9
235.26,25.38,322.06,29.6
240.33,24.74,325.06,30.3
245.4,24.05,322.38,31.1
250.48,23.36,325.53,31.8
255.55,22.67,317.11,32.5
260.62,21.96,325.66,33.3
265.69,21.23,333.37,34
270.76,20.53,324.76,34.7
275.83,19.67,325.76,35.5
281.19,19.05,328.64,36.2
285.97,18.29,335.31,36.9
291.04,17.56,336.62,37.7
296.11,16.82,351.38,38.4
301.18,16.03,346.24,39.2
306.25,15.31,347.73,39.9
311.32,14.57,354.93,40.6
316.39,13.93,350.3,41.4
321.46,13.16,351.8,42.1
326.53,12.31,366.5,42.9
331.6,11.52,363.54,43.7
336.67,10.65,389.88,44.5
341.74,9.82,372.75,45.3
346.81,8.94,381.78,46.1
351.88,8.11,387.97,47
356.95,7.3,380.36,47.9
362.02,6.49,390.7,48.8
367.09,5.7,392.24,49.8
372.16,4.89,396.11,50.9
377.23,3.99,393.1,52.1
382.53,3.32,383.78,53.1
387.37,2.58,386.9,54.3
392.44,1.8,390.38,55.5
397.51,1.09,380.88,56.7
402.58,0.37,381.73,58
407.65,-0.35,380.72,59.4
412.72,-1.07,371.51,60.8
417.79,-1.75,358.78,62.3
422.86,-2.4,356.16,63.8
427.93,-3.02,352.12,65.3
433,-3.64,347.31,66.9
438.07,-4.28,333.2,68.4
443.14,-4.88,325.51,70.1
448.21,-5.49,319.51,71.7
453.28,-6.06,314.82,73.4
458.35,-6.66,298.25,75.1
463.42,-7.2,300.21,76.8
468.49,-7.76,288.3,78.5
473.56,-8.34,286.99,80.3
478.63,-8.99,280.32,82.3
483.96,-9.43,278.35,83.9
488.77,-9.97,271.4,85.7
493.84,-10.48,265.42,87.5
498.91,-10.98,266.56,89.4
503.98,-11.47,260.94,91.3
509.05,-12.01,264.21,93.2
514.12,-12.45,260.71,95.1
519.19,-12.9,247.44,97
524.26,-13.33,246.26,98.9
529.33,-13.74,232.2,100.9
534.4,-14.14,237.42,102.8
539.47,-14.52,228.66,104.8
544.54,-14.85,219.03,106.8
549.61,-15.18,206.22,108.8
554.68,-15.49,201.25,110.8
559.75,-15.77,192.84,113
564.82,-16.01,183.52,115.2
569.89,-16.26,169.48,117.3
574.96,-16.47,157.55,119.5
580.03,-16.69,145.21,122.1
586.11,-16.89,129.45,124.2
591.18,-17.07,117.71,126.4
596.25,-17.24,111.56,128.6
601.32,-17.39,103.4,130.7
606.39,-17.54,95.85,132.8
611.46,-17.72,90.02,135
616.53,-17.88,85.57,137.2
621.6,-18.02,81.66,139.3
626.67,-18.17,73.98,141.3
631.74,-18.29,72,143.3
636.81,-10.34,72.64,145.4
641.88,-7.3,69.33,147.4
646.95,-7.52,69.24,149.4
652.02,-7.7,68.88,151.5
657.09,-7.84,66.01,153.6
662.16,-8.06,65.44,155.7
667.23,-8.3,64.73,157.8
672.3,-8.45,62.63,159.8
677.37,-8.61,59.96,161.7
682.44,-8.72,58.52,163.8
687.71,-8.83,54.07,165.5
692.58,-8.94,51.39,167.4
697.65,-9.05,51.48,169.1
702.72,-9.16,50.24,171
707.79,-9.28,50.32,172.8
712.86,-9.38,50.42,174.6
717.93,-9.54,46.5,176.4
723,-9.78,47.58,178.2
728.07,-9.96,47.16,180
733.14,-10.1,46.79,181.8
738.21,-10.24,46.26,183.5
743.28,-10.37,43.75,185.2
748.35,-10.48,44.37,186.8
753.42,-10.6,40.43,188.5
758.49,-10.77,42.07,190.2
763.56,-10.85,41.08,191.9
768.63,-10.95,38.44,193.5
773.7,-11.07,38.55,195.1
778.77,-11.14,39.43,196.6
783.84,-11.29,39.93,198.3
789.14,-11.4,35.7,199.7
793.97,-11.48,36.45,201.2
799.04,-11.59,36.57,202.7
804.11,-11.66,33.99,204.1
809.18,-11.75,33.72,205.5
814.25,-11.82,30.44,206.8
819.32,-11.88,30.41,208.2
824.39,-11.97,30.94,209.5
829.46,-12.04,27.96,210.8
834.53,-12.13,28.2,212.1
839.6,-12.18,29.08,213.4
844.67,-12.24,24.99,214.8
849.74,-12.34,25.57,216.1
854.81,-12.39,25.35,217.4
859.88,-12.47,25.91,218.7
864.95,-12.55,25.97,219.9
870.02,-12.6,25.52,221.1
875.09,-12.68,23.02,222.3
880.16,-12.71,22.95,223.5
885.23,-12.81,22.46,224.8
890.6,-12.86,23.7,225.8
895.37,-12.94,23.76,227
900.49,-12.99,23.11,228
905.51,-13.06,19.69,229.2
910.58,-13.1,19.78,230.3
915.65,-13.17,20.02,231.4
920.72,-13.22,20,232.5
925.79,-13.29,20.28,233.5
930.86,-13.35,20.39,234.6
935.93,-13.42,20.04,235.6
941,-13.44,20.34,236.6
946.07,-13.49,23.66,237.6
951.14,-13.52,23.25,238.6
956.21,-13.55,23.94,239.6
961.28,-13.88,19.99,240.6
966.35,-16.73,20.27,241.5
971.42,-11.06,16.99,242.4
976.49,-8.37,16.65,243.3
981.56,-8.43,16.71,244.2
986.63,-8.5,16.9,245.2
992.06,-8.55,20.16,246
996.77,-8.64,20.53,246.9
1001.84,-8.69,20.69,247.7
1006.91,-8.78,16.79,248.6
1011.98,-8.81,17.79,249.5
1017.05,-8.88,17.51,250.3
1022.12,-8.92,17.58,251.1
1027.19,-8.99,17.62,252
1032.26,-9.05,17.26,252.8
1037.33,-9.09,17.27,253.6
1042.4,-9.14,17.46,254.4
1047.47,-9.19,13.5,255.2
1052.54,-9.24,13.88,256
1057.61,-9.28,13.98,256.7
1062.68,-9.33,14.06,257.6
1067.75,-9.38,14.3,258.3
1072.82,-9.43,14.04,259.1
1077.89,-9.46,14.65,259.8
1082.96,-9.5,10.79,260.6
1088.04,-9.57,11.2,261.4
1093.37,-9.62,11.3,262.1
1098.18,-9.67,11.06,262.9
1103.25,-9.71,11.04,263.6
1108.32,-9.77,10.9,264.3
1113.39,-9.83,10.92,265
1118.46,-9.86,11.29,265.7
1123.53,-9.89,10.83,266.5
1128.6,-9.92,10.91,267.2
1133.67,-9.95,10.65,267.9
1138.74,-10.02,10.94,268.5
1143.81,-10.07,11.02,269.2
1148.88,-10.14,10.99,269.9
1153.95,-10.17,11.41,270.6
1159.02,-10.19,11.3,271.2
1164.09,-10.21,7.97,271.9
1169.16,-10.25,8.16,272.6
1174.23,-10.27,7.96,273.3
1179.3,-10.31,8.13,274
1184.37,-10.35,8.02,274.6
1189.44,-10.38,7.77,275.3
1194.82,-10.43,8.12,275.9
1199.58,-10.46,7.93,276.5
1204.65,-10.51,8.3,277.1
1209.72,-10.54,8.56,277.7
1214.79,-10.64,4.89,278.3
1219.86,-10.62,5.14,278.9
1224.93,-10.75,5.19,279.5
1227.97,-10.71,5.07,279.9

File: Edinburgh_Cone_25kW_3.csv
Time,Mass,HRR,Back Temp
[s],[g],[kW/m2],[C]
0,73.7871,0.1,17
5.1,66.7271,0.1,17.1
10.1,73.5571,-0.1,17.1
15.2,73.4471,-0.1,17.2
20.3,73.3471,-0.1,17.3
25.3,73.2271,0,17.3
30.4,73.1571,-0.3,17.4
35.5,73.0671,-0.2,17.5
40.6,73.0371,-0.3,17.6
45.6,73.0271,0.1,17.6
50.7,73.0471,0,17.8
55.8,73.0371,0.1,17.9
60.8,73.0571,-0.2,18
65.9,73.0571,-0.1,18.2
71,73.0271,-0.2,18.3
76,73.0171,0,18.5
81.1,73.0071,-0.3,18.7
86.2,72.9871,-0.2,18.9
91.3,72.9871,-0.2,19.2
96.3,72.9871,-3.8,19.4
101.4,72.8571,-0.1,19.7
106.5,72.5571,0,20
111.5,72.0371,0,20.4
116.6,71.4771,11.5,20.6
121.7,70.8971,51.4,21
126.8,70.3271,109.2,21.3
131.8,69.7271,161.3,21.8
136.9,69.1171,197.9,22.2
142,68.4871,224.1,22.7
147,67.8971,248,23.3
152.1,67.3571,255.8,23.8
157.2,66.6971,267.5,24.5
162.2,66.0371,275,25.2
167.3,65.3371,275.8,25.8
172.4,64.6671,290.7,26.4
177.5,64.0271,287.9,27.1
182.5,63.3871,299.9,27.7
187.6,62.7171,306.5,28.4
192.7,62.0171,308.3,29.1
197.7,61.3571,312.9,29.8
202.8,60.7071,314.7,30.5
207.9,60.0471,302.5,31.3
212.9,59.3671,315.5,32
218,58.7071,318.2,32.7
223.1,58.0271,312.1,33.4
228.2,57.3271,311.4,34.1
233.2,56.6571,307.2,34.7
238.3,55.9871,307,35.4
243.4,55.2871,321.2,36.1
248.4,54.6071,313.7,36.8
253.5,53.9371,311.5,37.4
258.6,53.2071,313.5,38.1
263.6,52.5071,318.2,38.9
268.7,51.8371,318.4,39.4
273.8,51.0971,320.7,40.1
278.9,50.3571,333.3,40.7
283.9,49.6271,330.2,41.4
289,48.9271,336,42.1
294.1,48.2071,330.2,42.8
299.1,47.4271,350.5,43.5
304.2,46.6771,332.4,44.2
309.3,45.9371,341.8,44.8
314.3,45.1571,340.6,45.5
319.4,44.3671,338.3,46.2
324.5,43.5571,350.4,46.8
329.6,42.7771,343.7,47.5
334.6,41.9471,343.8,48.2
339.7,41.1471,356.4,49
344.8,40.3071,370.7,49.6
349.8,39.4371,376.7,50.3
354.9,38.5671,375.3,51
360,37.7071,373.4,51.7
365,36.8671,390.3,52.5
370.1,35.9871,390.2,53.1
375.2,35.1371,388.5,53.9
380.3,34.2971,396.9,54.7
385.3,33.4171,401.9,55.5
390.4,32.5671,402.7,56.4
395.5,31.7071,406.4,57.2
400.5,30.8371,402,58.2
405.6,29.9871,411.5,59.2
410.7,29.1071,402.8,60.3
415.7,28.2871,406.8,61.4
420.8,27.4671,403.7,62.5
425.9,26.6671,408.9,63.7
431,25.9271,400.2,64.9
436,25.1971,397.3,66.1
441.1,24.4271,391,67.3
446.2,23.6971,390.8,68.6
451.2,22.9671,375.8,69.9
456.3,22.2571,375.1,71.2
461.4,21.5671,374.4,72.5
466.4,20.8871,356,74.1
471.5,20.1771,347.9,75.2
476.6,19.4871,352.4,76.7
481.7,18.8671,343,78.1
486.7,18.1971,331,79.5
492.5,17.4471,330.3,81.1
496.9,16.8971,323.6,82.4
501.9,16.2371,319.4,83.9
507,15.6471,316.2,85.4
512.1,15.0871,318.2,86.9
517.1,14.5571,310.8,88.5
522.2,14.0471,308.2,90.1
527.3,13.6171,293.2,91.7
532.4,13.1971,285.4,93.4
537.4,12.8071,266.7,95.2
542.5,12.4471,250.7,97
547.6,11.9771,235.2,98.8
552.6,11.5971,212.1,100.6
557.7,11.3371,204.5,102.5
562.8,11.0671,186.4,104.3
567.8,10.8071,165.8,106.5
572.9,10.5671,159.6,108.2
578,10.3571,147.6,110.2
583.1,10.1771,138,112.3
588.1,9.97714,131.9,114.3
593.2,9.78714,121.9,116.4
598.3,9.62714,116.3,118.4
603.3,9.45714,109.3,120.5
608.4,9.30714,101.7,122.5
613.5,9.13714,93.8,124.5
618.5,8.99714,88.7,126.6
623.6,8.84714,84.9,128.6
628.7,8.70714,79.6,130.6
633.8,8.59714,76.6,132.6
638.8,8.45714,71.5,134.6
643.9,8.35714,67.4,136.6
649,8.23714,65.6,138.5
654,8.13714,59.3,140.4
659.1,8.04714,55.8,142.3
664.2,7.94714,54.3,144.1
669.2,7.85714,51.2,146.3
674.3,7.77714,52.3,147.7
679.4,7.68714,48.5,149.5
684.4,7.60714,46.9,151.1
689.5,7.49714,44.6,152.8
694.6,7.40714,40.2,154.5
699.7,7.32714,40.9,156.1
704.7,7.26714,41.4,157.7
709.8,7.18714,38.6,159.2
714.9,7.10714,37.4,160.8
719.9,7.02714,38.8,162.3
725,6.93714,36.1,163.8
730.1,6.86714,35.9,165.3
735.1,6.79714,36.3,166.8
740.2,6.72714,36.8,168.3
745.3,6.64714,33.3,169.7
750.4,6.60714,32.9,171.2
755.4,6.53714,33.2,172.6
760.5,6.45714,32.9,174
765.6,6.38714,30.2,175.4
770.6,6.32714,30.1,177
775.7,6.23714,30.1,178.1
780.8,6.19714,30.8,179.4
785.8,6.08714,30.8,180.8
790.9,6.05714,30.7,182.1
796,5.98714,31.1,183.4
801.1,5.90714,31.1,184.7
806.1,5.83714,31.1,186
811.2,5.74714,31.2,187.3
816.3,5.71714,31.4,188.5
821.3,5.65714,30.7,189.8
826.4,5.55714,31.3,191
831.5,5.43714,27.5,192.3
836.5,5.36714,28.7,193.5
841.6,5.28714,28,194.7
846.7,5.22714,28.3,195.9
851.8,5.14714,28.8,197.1
856.8,5.09714,28.6,198.2
861.9,5.03714,28.2,199.4
867,4.96714,28.5,200.5
872,4.90714,29.3,201.9
877.1,4.83714,28,202.8
882.2,4.77714,28.7,203.9
887.2,4.67714,25.3,205.1
892.3,4.61714,28.4,206.2
897.4,4.56714,25.2,207.4
902.5,4.51714,25.1,208.5
907.5,4.44714,25.1,209.6
912.6,4.39714,25.1,210.7
917.7,4.25714,25,211.8
922.7,4.22714,25.2,212.8
927.8,4.14714,25.4,213.8
932.9,4.04714,25.4,214.9
937.9,4.00714,25.8,216
943,3.94714,25.5,216.9
948.1,3.88714,25.7,218
953.2,3.84714,26.1,219
958.2,3.78714,25.9,220.1
963.3,3.70714,25.4,221
968.4,3.62714,26.1,222.1
973.4,3.57714,26.2,223.3
978.5,3.51714,25.6,224.1
983.6,3.42714,25.9,225.1
988.6,3.36714,25.4,226.1
993.7,3.28714,26.4,227.1
998.8,3.23714,25.5,228
1003.9,3.18714,26.1,228.9
1008.9,3.11714,25.5,229.9
1014,3.04714,26,230.8
1019.1,2.99714,22.4,231.8
1024.1,2.94714,22.3,232.7
1029.2,2.89714,22.8,233.7
1034.3,2.83714,22.6,234.6
1039.3,2.77714,22.7,235.5
1044.4,2.71714,22.3,236.4
1049.5,2.67714,22.6,237.3
1054.6,2.59714,22.8,238.2
1059.6,2.55714,22.6,239.1
1064.7,2.51714,23.1,240
1069.8,2.45714,18.9,240.9
1074.8,2.39714,19,241.9
1079.9,2.32714,19,242.7
1085,2.28714,19.7,243.6
1090,2.19714,19.7,244.4
1095.1,2.13714,19.4,245.3
1100.2,2.08714,19.3,246.1
1105.3,2.01714,19.8,246.9
1110.3,1.95714,19.6,247.8
1115.4,1.94714,19.9,248.6
1120.5,1.91714,15.9,249.5
1125.5,1.84714,16.4,250.2
1130.6,1.77714,15.9,251
1135.7,1.70714,16.1,251.8
1140.7,1.65714,16.1,252.6
1145.8,1.61714,16.5,253.4
1150.9,1.55714,16.6,254.1
1156,1.51714,16.8,254.9
1161,1.44714,16.5,255.6
1166.1,1.43714,16.9,256.4
1171.2,1.38714,12.8,257.1
1176.2,1.29714,12.9,258
1182.4,1.26714,13,258.7
1187.4,1.21714,13.2,259.5
1192.5,1.17714,13.3,260.2
1197.5,1.14714,13.6,260.9
1202.6,1.08714,13.2,261.6
1207.7,1.07714,10.1,262.3
1212.7,1.03714,10,263
1217.8,0.967143,10,263.7
1222.9,0.957143,9.8,264.4
1228,0.927143,10,265
1233,0.897143,10,265.7
1238.1,0.877143,10.5,266.3
1243.2,0.807143,10.4,267
1248.2,0.777143,10.7,267.7
1253.3,0.787143,10.5,268.4
1258.4,0.737143,11,269
1263.4,0.677143,10.8,269.6
1268.5,0.647143,7.9,270.2
1273.6,0.597143,7.5,270.9
1278.7,0.577143,7.8,271.6
1283.7,0.547143,7.8,272.1
1288.8,0.517143,7.8,272.7
1293.9,0.477143,7.8,273.3
1298.9,0.437143,7.6,273.9
1304,0.387143,7.7,274.6
1309.1,0.377143,8,275.1
1314.1,0.337143,7.8,275.8
1319.2,0.287143,8.2,276.3
1324.3,0.247143,8.1,276.9
1329.4,0.247143,8.1,277.4
1334.4,0.207143,8,278
1339.5,0.197143,7.9,278.5
1344.6,0.197143,4.5,279
1349.6,0.167143,4.4,279.6
1354.7,0.127143,4.4,280.1
1359.8,0.0971429,4.5,280.6
1364.9,0.0471429,4.3,281.1

File: Edinburgh_Cone_65kW_2.csv
Time,Mass,HRR,Back Temp
[s],[g],[kW/m2],[C]
0,70.406,2.3,20.3
2,70.446,2.4,20.3
4.1,70.456,2.2,20.3
6.1,70.456,2.4,20.3
8.1,70.446,2.3,20.3
10.1,70.466,2.2,20.3
12.2,70.476,2.2,20.4
14.2,70.496,2.1,20.4
16.2,70.496,1.9,20.4
18.3,70.446,1.6,20.4
20.3,70.316,4.5,20.4
22.3,70.006,4.1,20.5
24.3,69.706,4.3,20.5
26.4,69.386,4.2,20.5
28.4,69.036,4.2,20.7
30.4,68.636,7.1,20.7
32.4,68.186,16.1,20.7
34.5,67.766,39,20.8
36.5,67.336,76.7,20.9
38.5,66.736,124.2,20.9
40.9,66.396,157.9,21
42.6,65.956,219.3,21.1
44.6,65.486,246.2,21.2
46.6,64.996,279.6,21.2
48.7,64.466,315.6,21.3
50.7,63.966,342.1,21.4
52.7,63.456,372.6,21.5
54.8,62.896,384.7,21.6
56.8,62.356,425.7,21.7
58.8,61.846,435.8,21.9
60.8,61.236,450.3,22
62.9,60.676,486,22.1
64.9,60.066,503.3,22.3
66.9,59.486,505.1,22.4
69,58.926,532.5,22.6
71,58.406,562.4,22.7
73,57.866,525,22.9
75,57.296,539.2,23
77.1,56.736,557.6,23.2
79.1,56.196,559.4,23.4
81.1,55.716,597.3,23.6
83.1,55.186,593.4,23.9
85.2,54.656,583.3,24.1
87.2,54.126,578.9,24.4
89.2,53.586,615.4,24.7
91.3,53.036,615.6,25
93.3,52.526,608.1,25.4
95.3,51.956,614,25.7
97.3,51.386,608.1,26
99.4,50.656,632.1,26.4
101.7,50.266,621.6,26.6
103.4,49.736,645.9,26.9
105.5,49.186,649.4,27.2
107.5,48.666,641.4,27.5
109.5,48.106,646.1,27.8
111.5,47.536,641.5,28.1
113.6,46.986,660.5,28.3
115.6,46.446,643.7,28.6
117.6,45.866,642.2,28.9
119.7,45.286,669.6,29.2
121.7,44.726,643.7,29.5
123.7,44.136,638.6,29.8
125.7,43.556,682.7,30.1
127.8,42.986,689.7,30.5
129.8,42.396,669.7,30.7
131.8,41.776,700.4,31
133.8,41.176,699,31.4
135.9,40.576,654.1,31.6
137.9,39.976,693.5,31.9
139.9,39.176,700.3,32.3
142.3,38.716,671.9,32.6
144,38.116,730.7,32.9
146,37.496,714.1,33.2
148,36.866,697.6,33.5
150.1,36.226,694.9,33.8
152.1,35.576,736.5,34.2
154.1,34.946,706.6,34.5
156.2,34.266,688.1,34.8
158.2,33.606,730.6,35.1
160.2,32.916,732.1,35.5
162.2,32.226,713.5,35.8
164.3,31.526,721.7,36.1
166.3,30.806,759.4,36.4
168.3,30.096,717.5,36.7
170.4,29.376,751.6,37
172.4,28.646,772.5,37.4
174.4,27.906,764.3,37.7
176.4,27.176,776.8,38
178.5,26.466,751.2,38.4
180.5,25.766,817.2,38.8
182.5,25.016,803.5,39.2
184.5,24.286,816.4,39.7
186.6,23.566,842.4,40.1
188.6,22.816,830.3,40.7
190.6,22.046,816,41.2
192.7,21.336,817.4,41.9
194.7,20.596,864.8,42.5
196.7,19.856,854.4,43.1
198.7,19.136,867.2,43.8
200.8,18.406,868.2,44.5
202.8,17.676,937.8,45.2
204.8,16.976,856.4,45.9
206.9,16.266,891.4,46.7
208.9,15.526,908.8,47.5
210.9,14.796,880.5,48.2
212.9,14.146,940.3,49
215,13.516,944.6,49.8
217,12.936,934.2,50.6
219,12.406,1003.1,51.4
221.1,11.916,998.8,52.3
223.1,11.466,1026.3,53.2
225.1,11.036,1027.8,54.2
227.1,10.636,1018.2,55.2
229.2,10.276,1027.5,56.2
231.2,9.926,978.4,57.3
233.2,9.666,966.9,58.3
235.3,9.376,933.3,59.4
237.3,9.096,903,60.6
239.3,8.806,844.5,61.6
241.3,8.456,806.1,63
243.7,8.266,770.5,63.9
245.4,8.026,702,65
247.4,7.826,684.4,66.2
249.4,7.636,669.1,67.4
251.5,7.386,580.1,68.6
253.5,7.166,567.6,69.8
255.5,6.966,530.8,71.1
257.6,6.796,483.4,72.3
259.6,6.636,451.4,73.5
261.6,6.446,425,74.8
263.6,6.276,409.5,76
265.7,6.086,380.2,77.3
267.7,5.826,366.5,78.5
269.7,5.686,361.8,79.8
271.8,5.506,330.9,81.1
273.8,5.356,316,82.4
275.8,5.176,312,83.7
277.8,5.006,282.9,85
279.9,4.896,275.1,86.3
281.9,4.806,267.1,87.6
283.9,4.706,252.7,88.9
286,4.636,243.5,90.3
288,4.586,237.1,91.6
290,4.506,230.6,92.9
292,4.456,230.2,94.2
294.1,4.436,212.5,95.5
296.1,4.346,213.3,96.7
298.1,4.266,198.6,97.7
300.1,4.206,197.9,98.1
302.2,4.106,196.2,97.5
304.2,4.046,189.2,97.4
306.2,4.006,186.3,97.6
308.3,3.956,179.1,98.1
310.3,3.936,168.6,99.2
312.3,3.876,166.7,100.4
314.3,3.846,161.8,101.6
316.4,3.916,155,102.9
318.4,3.886,149.9,104.7
320.4,3.806,144.6,106.6
322.5,3.766,140.4,108.4
324.5,3.796,137.5,110.1
326.5,3.756,131.9,111.6
328.5,3.756,124.2,113
330.6,3.696,117.2,114.3
332.6,3.676,112,115.6
334.6,3.686,113.4,116.8
336.7,3.686,103,117.8
338.7,3.756,101,118.9
340.7,3.796,96.3,119.9
342.7,3.856,91.4,121.1
345.2,3.866,91.5,122
346.8,3.866,85.3,123
348.8,3.846,81.6,124
350.8,3.816,81,124.9
352.9,3.806,76.7,125.9
354.9,3.756,72.4,126.9
356.9,3.726,71.2,127.8
359,3.716,70.4,128.8
361,3.706,67.7,129.8
363,3.696,65.8,130.8
365,3.676,65.9,131.7
367.1,3.656,63.7,132.6
369.1,3.626,62.7,133.5
371.1,3.586,62.1,134.4
373.2,3.576,58.9,135.2
375.2,3.516,59.6,136.1
377.2,3.476,57.1,137.1
379.2,3.466,57.4,137.9
381.3,3.416,55.3,138.8
383.3,3.406,54.4,139.6
385.3,3.376,52.4,140.5
387.4,3.366,51.7,141.4
389.4,3.356,52.1,142.3
391.4,3.376,49.5,143.2
393.4,3.376,48.9,144.1
395.5,3.366,49.7,144.9
397.5,3.356,46.8,145.8
399.5,3.376,47,146.7
401.5,3.406,46.7,147.5
403.6,3.396,43.8,148.3
405.6,3.356,44.4,149.2
407.6,3.346,44.2,150
409.7,3.326,45,150.8
411.7,3.306,41.9,151.6
413.7,3.296,41.9,152.5
415.7,3.306,42.4,153.2
417.8,3.296,39.9,154
419.8,3.276,40.2,154.8
421.8,3.266,37.1,155.6
423.9,3.186,36.9,156.3
425.9,3.166,37.1,157.1
427.9,3.146,35.5,157.9
429.9,3.156,35.2,158.7
432,3.166,32.5,159.5
434,3.136,32,160.2
436,3.126,32.4,161
438.1,3.146,32,161.8
440.1,3.116,29.7,162.5
442.1,3.116,30,163.2
444.1,3.106,30.2,164.2
446.6,3.096,30.4,164.8
448.2,3.096,27.3,165.5
450.2,3.086,27.9,166.3
452.2,3.036,27.6,167
454.3,3.016,24.8,167.7
456.3,2.986,25.3,168.4
458.3,3.006,24.9,169.2
460.4,2.996,22.4,169.8
462.4,3.016,22.1,170.5
464.4,2.996,22.3,171.3
466.4,3.006,19.8,172
468.5,2.996,20,172.6
470.5,2.996,16.8,173.3
472.5,3.006,17,174
474.6,2.986,17.2,174.7
476.6,2.966,14.1,175.3
478.6,2.966,14.5,176
480.6,2.986,14.8,176.7
482.7,2.976,14.8,177.3
484.7,2.976,11.6,178
486.7,2.986,11.6,178.6
488.8,2.976,11.9,179.3
490.8,2.956,11.9,179.9
492.8,2.946,11.7,180.6
494.8,2.946,9.1,181.2
496.9,2.946,9,181.9
498.9,2.956,9.4,182.5
500.9,2.936,9.3,183.2
502.9,2.926,9.3,183.8
505,2.936,9.2,184.4
507,2.936,9.6,185.1
509,2.956,9.5,185.7
511.1,2.946,6.4,186.3
513.1,2.926,6.6,186.9
515.1,2.936,6.6,187.6
517.1,2.926,6.9,188.2
519.2,2.946,6.8,188.8
521.2,2.946,7.1,189.4
523.2,2.946,6.9,190
525.3,2.916,7,190.6
527.3,2.946,7.2,191.3
529.3,2.946,4.2,191.9
531.3,2.956,4.1,192.4
533.4,2.946,4.1,193.1
535.4,2.926,4.2,193.7
537.4,2.916,4.2,194.2
539.5,2.926,4.3,194.8
541.5,2.946,4.4,195.4
543.5,2.936,4.3,196
545.5,2.916,4.4,196.7
548.1,2.926,4.4,197.2
549.6,2.916,4.4,197.8
551.6,2.926,1.2,198.4
553.6,2.946,1.4,199
554.7,2.946,1.2,199.2

File: Edinburgh_Cone_65kW_3.csv
Time,Mass,HRR,Back Temp
[s],[g],[kW/m2],[C]
0,71.366,-3.1,28.4
2,71.646,-3.2,28.4
4.1,71.626,-3,28.5
6.1,71.606,-3.3,28.5
8.1,71.586,0.3,28.6
10.1,71.566,0.1,28.6
12.2,71.526,0.2,28.6
14.2,71.466,0.2,28.7
16.2,71.326,0.3,28.8
18.3,71.136,0.1,28.8
20.3,70.836,-0.1,28.8
22.3,70.396,-0.2,28.9
24.3,69.916,-0.2,29
26.4,69.446,-0.1,29.1
28.4,68.986,-0.1,29.1
30.4,68.516,5.3,29.2
32.4,68.046,17.7,29.3
34.5,67.566,47.8,29.4
36.5,67.066,90.5,29.5
,66.526,126.2,29.6
40.6,66.006,178.2,29.8
42.6,65.456,209.6,29.9
44.6,64.936,263.7,30
46.6,64.376,303.8,30.1
48.7,63.806,330.9,30.3
50.7,63.286,387.9,30.4
52.7,62.756,388.1,30.6
54.8,62.216,426.3,30.7
56.8,61.666,439,31
58.8,61.126,492.1,31
60.8,60.566,493.1,31.2
62.9,60.006,496.9,31.4
64.9,59.426,539,31.6
66.9,58.866,515.3,31.7
69,58.316,554.1,32
71,57.766,571.1,32.2
73,57.206,569.9,32.4
75,56.656,567.5,32.8
77.9,55.856,576.9,33
79.4,55.476,579.2,33.2
81.1,55.026,608.6,33.6
83.1,54.476,608,33.9
85.2,53.926,593.6,34.3
87.2,53.366,608.6,34.7
89.2,52.826,620.2,35.1
91.3,52.276,655.6,35.6
93.3,51.696,627.6,36
95.3,51.106,659.1,36.5
97.3,50.526,637.5,36.9
99.4,49.946,681.6,37.4
101.4,49.356,660.8,37.8
103.4,48.766,651.8,38.3
105.5,48.196,627.9,38.8
107.5,47.606,638.6,39.2
109.5,47.046,622.8,39.8
112.3,46.276,630.4,40
113.8,45.826,641.2,40.3
115.6,45.296,683.7,40.6
117.6,44.696,676.3,41
119.7,44.106,644,41.3
121.7,43.496,658.2,41.6
123.7,42.896,687.1,41.9
125.7,42.316,685.6,42.3
127.8,41.726,699,42.6
129.8,41.136,655.7,42.9
131.8,40.536,708.5,43.3
133.8,39.936,664.8,43.6
135.9,39.316,677.7,44
137.9,38.696,705.5,44.4
139.9,38.076,702.8,44.7
142,37.456,696.9,45
144,36.826,684.1,45.4
146,36.206,695.6,45.8
148,35.556,714,46.2
150.1,34.906,718.5,46.5
152.1,34.246,703.2,46.8
154.1,33.586,718.8,47.2
156.2,32.926,712.3,47.7
158.2,32.266,729.6,48
160.2,31.566,705,48.3
162.2,30.836,706,48.7
164.3,30.176,699.5,49.1
166.3,29.456,761.7,49.5
168.3,28.736,723.1,49.9
170.4,28.026,765.9,50.2
172.4,27.276,764.1,50.7
174.4,26.516,768.5,51
176.4,25.756,752.4,51.6
179.4,24.626,818.8,51.9
180.9,24.066,776.5,52.3
182.5,23.456,812.3,52.9
184.6,22.706,797.3,53.3
186.6,21.966,795.1,53.9
188.6,21.216,866.4,54.5
190.6,20.486,877.2,55.2
192.7,19.756,864.5,56
194.7,19.006,891.3,56.7
196.7,18.256,828.8,57.5
198.7,17.526,862.1,58.4
200.8,16.776,866.3,59.2
202.8,16.036,896.7,60.1
204.8,15.316,930.6,61.1
206.9,14.596,862.2,62.1
208.9,13.846,906.7,63.1
210.9,13.116,843.1,64.1
212.9,12.366,885.4,65.2
215,11.666,927,66.1
217,10.996,930.6,66.9
219,10.296,910.7,67.9
221.1,9.646,909.7,68.9
223.1,9.046,979.4,69.9
225.1,8.506,992.5,71
227.1,7.996,1008,72
229.2,7.536,992.9,73.2
231.2,7.126,1017.5,74.7
233.2,6.776,1043.9,76.4
235.2,6.456,1026.1,78.1
237.3,6.196,1028.7,79.7
239.3,5.956,969.4,81.3
241.3,5.716,970.5,82.9
243.4,5.496,888.4,84.6
245.4,5.276,843.7,86.3
247.4,5.066,818.5,87.9
249.4,4.866,755.9,89.7
251.5,4.656,677.4,91.5
253.5,4.456,627.3,93.2
255.5,4.246,580.1,94.8
257.6,4.036,521.2,96.4
259.6,3.836,493.5,97.7
261.6,3.626,459.6,98.1
263.6,3.406,432,97.7
265.7,3.216,400.4,97.4
267.7,3.006,371.2,97.6
269.7,2.826,356.3,97.8
271.8,2.656,336.3,98.2
273.8,2.486,318.7,100.1
275.8,2.316,304.9,104.6
277.8,2.176,279.4,108.9
280.6,1.986,276.6,110.6
282.1,1.896,260.2,112.4
283.9,1.766,262.4,114.1
285.9,1.596,242,115.8
288,1.476,238.9,117.3
290,1.346,231.6,118.8
292,1.216,220.9,120.3
294.1,1.096,217.9,121.7
296.1,0.976,213.9,123.1
298.1,0.886,207.3,124.7
300.1,0.776,206.5,126
302.2,0.686,201.9,127.6
304.2,0.616,196.1,129
306.2,0.516,188.9,130.5
308.3,0.416,181.3,131.9
310.3,0.326,170.9,133.2
312.3,0.226,170.4,134.5
314.3,0.156,164.1,135.7
316.4,0.076,161,137
318.4,-0.014,151.1,138.3
320.4,-0.094,147.5,139.5
322.5,-0.174,137.6,140.7
324.5,-0.244,132.4,141.8
326.5,-0.314,132.2,142.9
328.5,-0.364,125.8,144.1
330.6,-0.444,119.9,145.2
332.6,-0.504,118,146.2
334.6,-0.544,114,147.3
336.7,-0.604,111.8,148.3
338.7,-0.684,107.2,149.4
340.7,-0.724,103.9,150.5
342.7,-0.794,102.3,151.5
344.8,-0.834,96.7,152.5
346.8,-0.874,92.3,153.5
348.8,-0.944,91.9,154.4
350.8,-0.974,90.7,155.2
352.9,-1.014,85.7,156.2
354.9,-1.064,83.3,157.1
356.9,-1.094,81.1,157.9
359,-1.154,80,158.8
361,-1.204,78,159.7
363,-1.254,75.6,160.6
365,-1.284,72.7,161.5
367.1,-1.344,70.8,162.4
369.1,-1.374,69.1,163.3
371.1,-1.414,65.8,164.2
373.2,-1.414,62,165
375.2,-1.474,61.4,165.9
377.2,-1.514,61.5,166.8
379.2,-1.564,59.4,168
382,-1.604,56.5,168.8
383.5,-1.634,54.7,169.5
385.3,-1.654,51.7,170.3
387.4,-1.674,52.6,171.2
389.4,-1.704,50,172
391.4,-1.734,50.9,172.8
393.4,-1.764,48.6,173.6
395.5,-1.794,45.9,174.4
397.5,-1.814,46.2,175.2
399.5,-1.834,42.5,176
401.5,-1.854,39.8,176.8
403.6,-1.864,40.8,177.6
405.6,-1.884,37.9,178.3
407.6,-1.884,35.2,179
409.7,-1.894,34.9,179.8
411.7,-1.904,33.2,180.5
413.7,-1.914,30.2,181.3
415.7,-1.924,31.2,182
417.8,-1.924,27.6,182.8
419.8,-1.934,27.8,183.5
421.8,-1.944,25.3,184.2
423.9,-1.964,25.9,184.9
425.9,-1.974,23.4,185.6
427.9,-1.974,23.5,186.3
429.9,-1.994,20.5,187
432,-2.004,20.6,187.7
434,-2.004,17.6,188.4
436,-2.004,17.6,189.1
438.1,-2.004,15.5,189.8
440.1,-2.004,15.4,190.4
442.1,-2.004,12.7,191.1
444.1,-2.004,12.5,191.8
446.2,-2.004,12.5,192.5
448.2,-2.024,12.9,193.1
450.2,-2.014,13,193.8
452.2,-2.044,10.3,194.5
454.3,-2.044,10.3,195.2
456.3,-2.044,10.3,195.8
458.3,-2.054,10.4,196.5
460.4,-2.064,10.2,197.2
462.4,-2.074,10.8,197.8
464.4,-2.074,10.3,198.4
466.4,-2.074,10.7,199.1
468.5,-2.084,7.6,199.7
470.5,-2.084,7.8,200.4
472.5,-2.084,8,201
474.6,-2.084,8,201.6