Folder: matl-db/Non-charring/PMMA/GIDAZE+

File: GIDAZE+_FPA_25kW_Temp_1.csv
Time,Back surface temperature
[s],[K]
1,296.865
3,296.786
5,296.736
7,296.689
9,296.662
11,296.647
13,296.647
15,296.661
17,296.728
19,296.842
21,297.013
23,297.393
25,297.717
27,298
29,298.292
31,298.609
33,298.959
35,299.311
37,299.707
39,300.11
41,300.491
43,300.935
45,301.374
47,301.828
49,302.311
51,302.793
53,303.311
55,303.827
57,304.372
59,304.907
61,305.483
63,306.045
65,306.631
67,307.232
69,307.842
71,308.528
73,309.217
75,309.972
77,310.77
79,311.628
81,312.513
83,313.486
85,314.512
87,315.61
89,316.73
91,317.984
93,319.326
95,320.696
97,322.202
99,323.799
101,325.489
103,327.281
105,329.079
107,330.831
109,332.389
111,334.364
113,335.938
115,337.91
117,340.121
119,342.708
121,345.401
123,345.82
125,348.597
127,351.037
129,353.804
131,357.74
133,359.54
135,360.787
137,362.049
139,363.096
141,364.192
143,365.183
145,365.753
147,366.229
149,363.389
151,358.765
153,354.068
155,349.59
157,345.439
159,341.943
161,339.226
163,337.32
165,336.01
167,335.091
169,334.434
171,333.994
173,333.664
175,333.419
177,333.163
179,332.789
181,332.595
183,332.429
185,332.329
187,332.288
189,332.291
191,332.327
193,332.393
195,332.495
197,332.618
199,332.786
201,333.044
203,333.248
205,333.489
207,333.783
209,334.064
211,334.368
213,334.633
215,334.892
217,335.173
219,335.181
221,335.415
223,335.698
225,336.11
227,336.489
229,336.958
231,337.527
233,338.084
235,338.803
237,339.52
239,340.255
241,340.713
243,341.151
245,341.639
247,341.886
249,342.356
251,342.641
253,342.911
255,343.228
257,343.57
259,343.956
261,344.333
263,344.799
265,345.193
267,345.681
269,346.506
271,347.629
273,349.587
275,352.79
277,355.541
279,358.423
281,362.766
283,376.336
285,379.799
287,380.711
289,380.221
291,380.838
293,382.187
295,383.478
297,385.558
299,387.409
301,388.853
303,389.154
305,390.762
307,391.607
309,392.859
311,394.019
313,395.697
315,395.852
317,397.8
319,400.327
321,402.01
323,403.639
325,406.475
327,410.492
329,419.932
331,434.744
333,443.206
335,459.805
337,470.416
339,480.714
341,487.294
343,491.34
345,495.724
347,501.013
349,507.212
351,519.698
353,525.293
355,530.525
357,535.319
359,537.911
361,538.486
363,538.956
365,543.158
367,547.322
369,546.526
371,549.149
373,555.857
375,560.574
377,564.075
379,568.683
381,570.934
383,575.352
385,578.937
387,579.762
389,576.088
391,553.373
393,542.434
395,543.772
397,553.93
399,558.815
401,554.985
403,548.1
405,543.242
407,541.036
409,539.385
411,539.315
413,539.338
415,539.686
417,540.144
419,540.275
421,540.257
423,541.997
425,541.28
427,541.893
429,543.542
431,544.389
433,543.835
435,545.498
437,546.876
439,547.434
441,548.361
443,549.001
445,548.861
447,550.023
449,550.245
451,550.595
453,552.103
455,554.054
457,554.895
459,555.352
461,555.227
463,556.033
465,557.783
467,558.014
469,558.553
471,559.412
473,559.205
475,560.913
477,560.976
479,560.882
481,562.936
483,562.967
485,563.676
487,565.016
489,565.437
491,566.121
493,566.645
495,567.505
497,568.408
499,570.074
501,569.372
503,570.398
505,571.693
507,572.291
509,572.003
511,573.253
513,572.602
515,573.044
517,573.554
519,574.062
521,574.977
523,575.235
525,576.335
527,576.849
529,577.196
531,578.167
533,578.047

File: GIDAZE+_FPA_25kW_Temp_2.csv
Time,Back surface temperature
[s],[K]
1,299.291
3,299.282
5,299.287
7,299.286
9,299.293
11,299.339
13,299.372
15,299.482
17,299.805
19,299.967
21,300.16
23,300.364
25,300.589
27,300.838
29,301.076
31,301.348
33,301.637
35,301.957
37,302.301
39,302.656
41,303.045
43,303.432
45,303.884
47,304.304
49,304.745
51,305.24
53,305.76
55,306.295
57,306.85
59,307.462
61,308.065
63,308.689
65,309.331
67,309.941
69,310.589
71,311.262
73,311.97
75,312.677
77,313.493
79,314.296
81,315.164
83,316.076
85,317.02
87,318.027
89,319.081
91,320.145
93,321.289
95,322.462
97,323.703
99,325.055
101,326.447
103,327.954
105,329.476
107,330.914
109,332.559
111,334.034
113,335.344
115,336.687
117,338.391
119,340.202
121,341.936
123,343.418
125,345.288
127,346.573
129,348.066
131,350.355
133,353.34
135,357.402
137,360.667
139,362.75
141,364.202
143,365.407
145,366.347
147,367.201
149,367.308
151,364.475
153,361.936
155,358.596
157,352.915
159,348.581
161,344.868
163,342.007
165,339.806
167,338.198
169,336.986
171,336.2
173,335.671
175,335.215
177,334.988
179,334.852
181,334.721
183,334.689
185,334.642
187,334.694
189,334.749
191,334.799
193,334.914
195,335.034
197,335.192
199,335.348
201,335.519
203,335.689
205,335.89
207,336.125
209,336.346
211,336.624
213,336.888
215,337.151
217,337.448
219,337.705
221,337.994
223,338.35
225,338.703
227,339.033
229,339.362
231,339.72
233,340.046
235,340.309
237,340.585
239,340.941
241,341.296
243,341.581
245,341.855
247,342.234
249,342.61
251,343.021
253,343.377
255,343.754
257,344.139
259,344.597
261,345.008
263,345.43
265,345.862
267,346.306
269,346.764
271,347.143
273,347.609
275,348.074
277,348.451
279,348.898
281,349.256
283,349.693
285,350.041
287,350.415
289,350.754
291,351.181
293,351.667
295,352.041
297,352.401
299,352.653
301,353.137
303,353.559
305,353.867
307,354.283
309,354.61
311,355.131
313,355.617
315,356.186
317,356.862
319,357.644
321,358.467
323,358.904
325,359.553
327,360.234
329,360.973
331,361.744
333,362.575
335,363.429
337,364.427
339,365.441
341,366.614
343,367.993
345,369.565
347,371.163
349,372.716
351,374.348
353,376.067
355,377.856
357,380.072
359,382.775
361,385.648
363,388.467
365,390.991
367,393.391
369,395.151
371,397.299
373,399.661
375,401.977
377,404.654
379,407.517
381,410.288
383,413.021
385,415.938
387,418.482
389,422.391
391,428.059
393,434.26
395,440.592
397,446.815
399,454.717
401,465.477
403,471.249
405,471.504
407,469.996
409,467.482
411,466.823
413,465.57
415,465.418
417,464.246
419,463.796
421,464.117
423,465.089
425,465.708
427,466.592
429,467.604
431,468.808
433,469.183
435,469.973
437,470.775
439,472.182
441,473.327
443,474.374
445,474.663
447,475.965
449,476.675
451,477.766
453,478.173
455,480.057
457,480.394
459,481.276
461,482.174
463,482.857
465,483.757
467,484.894
469,485.09
471,486.397
473,487.31
475,488.011
477,489.23
479,489.853
481,490.657
483,491.556
485,492.388
487,492.896
489,493.751
491,494.746
493,495.41
495,496.071
497,496.928
499,497.858
501,498.525
503,499.696
505,500.139
507,500.829
509,501.681
511,501.884
513,502.986
515,503.67
517,503.861
519,505.172
521,505.834
523,506.477
525,506.712
527,507.34
529,508.643
531,508.887
533,510.202
535,510.472
537,511.074
539,511.782
541,512.303
542,512.782