Folder: matl-db/Non-charring/PMMA/Sandia

File: Sandia_TGA_Ar_10K_1.csv
Time,Temperature,Mass
[s],[K],[mg]
1209.15,307.216,-4.00E-03
1386.97,309.116,1.19E-04
1429.46,311.016,9.93E-04
1459.95,312.916,4.00E-03
1484.83,314.816,2.88E-03
1506.56,316.716,4.31E-03
1526.13,318.616,6.85E-03
1544.11,320.516,9.43E-03
1560.96,322.416,1.16E-02
1576.92,324.316,1.10E-02
1592.14,326.216,9.14E-03
1606.731,328.116,9.46E-03
1620.86,330.016,8.87E-03
1634.54,331.916,8.98E-03
1647.76,333.816,8.01E-03
1660.695,335.716,7.59E-03
1673.331,337.616,7.88E-03
1685.7,339.516,6.03E-03
1697.89,341.416,3.84E-03
1709.88,343.316,1.80E-03
1721.67,345.216,3.02E-03
1733.31,347.116,4.09E-03
1744.83,349.016,2.17E-03
1756.22,350.916,1.96E-03
1767.44,352.816,2.96E-03
1778.54,354.716,9.91E-04
1789.54,356.616,-1.14E-03
1800.38,358.516,-8.58E-04
1811.1,360.416,-3.01E-03
1821.66,362.316,-4.00E-03
1832.196,364.216,-4.76E-03
1842.66,366.116,-5.17E-03
1852.95,368.016,-7.00E-03
1863.16,369.916,-8.99E-03
1873.32,371.816,-1.00E-02
1883.37,373.716,-1.17E-02
1893.39,375.616,-1.19E-02
1903.359,377.516,-1.20E-02
1913.28,379.416,-1.36E-02
1923.16,381.316,-1.50E-02
1933,383.216,-1.50E-02
1942.8,385.116,-1.91E-02
1952.56,387.016,-1.70E-02
1962.34,388.916,-1.89E-02
1972.05,390.816,-1.90E-02
1981.73,392.716,-1.99E-02
1991.36,394.616,-2.10E-02
2000.949,396.516,-2.30E-02
2010.534,398.416,-2.37E-02
2020.089,400.316,-2.46E-02
2029.59,402.216,-2.50E-02
2039.09,404.116,-2.70E-02
2048.57,406.016,-2.70E-02
2057.99,407.916,-2.90E-02
2067.39,409.816,-2.90E-02
2076.759,411.716,-3.20E-02
2086.12,413.616,-3.30E-02
2095.46,415.516,-3.60E-02
2104.76,417.416,-3.84E-02
2114.06,419.316,-4.10E-02
2123.36,421.216,-4.08E-02
2132.63,423.116,-4.41E-02
2141.901,425.016,-4.60E-02
2151.17,426.916,-4.90E-02
2160.45,428.816,-5.20E-02
2169.7,430.716,-5.40E-02
2178.96,432.616,-5.60E-02
2188.227,434.516,-5.90E-02
2197.51,436.416,-6.25E-02
2206.78,438.316,-6.77E-02
2216.06,440.216,-7.21E-02
2225.34,442.116,-7.71E-02
2234.6,444.016,-8.21E-02
2243.87,445.916,-8.84E-02
2253.144,447.816,-9.70E-02
2262.46,449.716,-0.10313
2271.78,451.616,-0.11198
2281.056,453.516,-0.12119
2290.34,455.416,-0.12799
2299.64,457.316,-0.1365
2308.94,459.216,-0.142
2318.24,461.116,-0.15207
2327.553,463.016,-0.159
2336.89,464.916,-0.16918
2346.24,466.816,-0.17521
2355.57,468.716,-0.1827
2364.91,470.616,-0.18898
2374.25,472.516,-0.19598
2383.63,474.416,-0.20199
2393,476.316,-0.20907
2402.39,478.216,-0.21612
2411.79,480.116,-0.221
2421.25,482.016,-0.22525
2430.68,483.916,-0.23192
2440.12,485.816,-0.236
2449.6,487.716,-0.23994
2459.09,489.616,-0.243
2468.577,491.516,-0.24503
2478.08,493.416,-0.24594
2487.62,495.316,-0.248
2497.15,497.216,-0.24903
2506.69,499.116,-0.25218
2516.274,501.016,-0.252
2525.85,502.916,-0.254
2535.43,504.816,-0.254
2545.06,506.716,-0.256
2554.668,508.616,-0.256
2564.29,510.516,-0.258
2573.907,512.416,-0.258
2583.564,514.316,-0.25999
2593.23,516.216,-0.26183
2602.93,518.116,-0.265
2612.63,520.016,-0.26698
2622.35,521.916,-0.26831
2632.08,523.816,-0.271
2641.85,525.716,-0.273
2651.66,527.616,-0.275
2661.444,529.516,-0.27701
2671.26,531.416,-0.27899
2681.067,533.316,-0.28116
2690.91,535.216,-0.28406
2700.76,537.116,-0.288
2710.65,539.016,-0.29249
2720.55,540.916,-0.296
2730.462,542.816,-0.301
2740.41,544.716,-0.30498
2750.36,546.616,-0.31097
2760.33,548.516,-0.31728
2770.33,550.416,-0.32498
2780.36,552.316,-0.33214
2790.39,554.216,-0.33835
2800.45,556.116,-0.34714
2810.52,558.016,-0.35597
2820.58,559.916,-0.36595
2830.66,561.816,-0.375
2840.763,563.716,-0.38657
2850.89,565.616,-0.39822
2861.019,567.516,-0.40903
2871.17,569.416,-0.42099
2881.314,571.316,-0.43395
2891.48,573.216,-0.44701
2901.654,575.116,-0.46078
2911.81,577.016,-0.47287
2921.97,578.916,-0.4886
2932.176,580.816,-0.50379
2942.37,582.716,-0.52287
2952.56,584.616,-0.54033
2962.74,586.516,-0.55922
2972.99,588.416,-0.5765
2983.27,590.316,-0.59485
2993.54,592.216,-0.61498
3003.79,594.116,-0.63906
3014.07,596.016,-0.66426
3024.36,597.916,-0.69114
3034.67,599.816,-0.71895
3044.99,601.716,-0.75075
3055.33,603.616,-0.78592
3065.69,605.516,-0.82136
3076.04,607.416,-0.86406
3086.39,609.316,-0.90732
3096.753,611.216,-0.96902
3107.151,613.116,-1.02051
3117.55,615.016,-1.08707
3127.95,616.916,-1.15403
3138.37,618.816,-1.22783
3148.83,620.716,-1.30989
3159.282,622.616,-1.3992
3169.737,624.516,-1.49588
3180.2,626.416,-1.59942
3190.7,628.316,-1.71114
3201.207,630.216,-1.82865
3211.707,632.116,-1.95179
3222.222,634.016,-2.08386
3232.75,635.916,-2.21898
3243.27,637.816,-2.35962
3253.82,639.716,-2.50412
3264.37,641.616,-2.65501
3274.92,643.516,-2.80549
3285.438,645.416,-2.9648
3295.97,647.316,-3.12034
3306.53,649.216,-3.27576
3317.1,651.116,-3.42721
3327.7,653.016,-3.57433
3338.298,654.916,-3.71612
3348.9,656.816,-3.84728
3359.472,658.716,-3.97409
3370.07,660.616,-4.09012
3380.66,662.516,-4.19619
3391.251,664.416,-4.29021
3401.83,666.316,-4.37238
3412.41,668.216,-4.4483
3422.97,670.116,-4.51485
3433.58,672.016,-4.57159
3444.16,673.916,-4.61406
3454.75,675.816,-4.65705
3465.354,677.716,-4.69686
3475.965,679.616,-4.73206
3486.57,681.516,-4.75621
3497.21,683.416,-4.77669
3507.86,685.316,-4.79602
3518.52,687.216,-4.81294
3529.215,689.116,-4.82787
3539.92,691.016,-4.83874
3550.67,692.916,-4.85053
3561.42,694.816,-4.86044
3572.23,696.716,-4.86891
3583.026,698.616,-4.87346
3593.86,700.516,-4.8782
3604.71,702.416,-4.88216
3615.59,704.316,-4.88606
3626.49,706.216,-4.89
3637.42,708.116,-4.892
3648.39,710.016,-4.894
3659.36,711.916,-4.89399
3670.35,713.816,-4.893
3681.38,715.716,-4.89208
3692.45,717.616,-4.89213
3703.55,719.516,-4.893
3714.68,721.416,-4.894
3725.85,723.316,-4.89497
3737.03,725.216,-4.89498
3748.26,727.116,-4.89513
3759.49,729.016,-4.895
3770.77,730.916,-4.897
3782.06,732.816,-4.897
3793.4,734.716,-4.899
3804.79,736.616,-4.899
3816.2,738.516,-4.89901
3827.61,740.416,-4.897
3839.04,742.316,-4.897
3850.51,744.216,-4.89697
3861.963,746.116,-4.89721
3873.44,748.016,-4.8949
3884.93,749.916,-4.896
3896.48,751.816,-4.898
3908.02,753.716,-4.899
3919.61,755.616,-4.89809
3931.22,757.516,-4.898
3942.86,759.416,-4.89801
3954.51,761.316,-4.89699
3966.21,763.216,-4.89599
3977.88,765.116,-4.89492
3989.57,767.016,-4.895
4001.25,768.916,-4.897
4012.94,770.816,-4.896
4024.647,772.716,-4.896
4036.34,774.616,-4.896
4048.07,776.516,-4.89398
4059.77,778.416,-4.896
4071.492,780.316,-4.894
4083.24,782.216,-4.894
4095.03,784.116,-4.894
4106.79,786.016,-4.894
4118.56,787.916,-4.89414
4130.35,789.816,-4.897
4142.14,791.716,-4.896
4153.97,793.616,-4.896
4165.77,795.516,-4.89598
4177.57,797.416,-4.895
4189.37,799.316,-4.895
4201.18,801.216,-4.895
4213.01,803.116,-4.89499
4224.84,805.016,-4.895
4236.67,806.916,-4.897
4248.46,808.816,-4.896
4260.249,810.716,-4.896
4272.06,812.616,-4.894
4283.868,814.516,-4.89622
4295.68,816.416,-4.894
4307.53,818.316,-4.896
4319.385,820.216,-4.89405
4331.24,822.116,-4.896
4343.08,824.016,-4.895
4354.959,825.916,-4.894
4366.83,827.816,-4.894
4378.67,829.716,-4.89464
4390.49,831.616,-4.895
4402.341,833.516,-4.895
4414.15,835.416,-4.898
4425.95,837.316,-4.89761
4437.74,839.216,-4.898
4449.5,841.116,-4.899
4461.3,843.016,-4.899
4473.12,844.916,-4.897
4484.91,846.816,-4.899
4496.75,848.716,-4.897
4508.63,850.616,-4.89695
4520.553,852.516,-4.897
4532.53,854.416,-4.898
4544.55,856.316,-4.89598
4556.54,858.216,-4.89595
4568.53,860.116,-4.896
4580.51,862.016,-4.89599
4592.49,863.916,-4.895
4604.43,865.816,-4.896
4616.36,867.716,-4.896
4628.439,869.616,-4.897

File: Sandia_TGA_Ar_10K_2.csv
Time,Temperature,Mass
[s],[K],[mg]
1200.35,308.35,9.00E-03
1384.52,310.25,7.09E-03
1428.59,312.15,5.55E-03
1460.457,314.05,6.78E-04
1486.79,315.95,-1.98E-04
1509.69,317.85,-3.97E-04
1530.42,319.75,-2.93E-03
1549.53,321.65,-1.98E-03
1567.449,323.55,-1.79E-03
1584.37,325.45,-2.02E-03
1600.49,327.35,-4.91E-03
1615.98,329.25,-3.89E-03
1630.95,331.15,-5.71E-03
1645.38,333.05,-4.47E-03
1659.42,334.95,-2.83E-03
1673.049,336.85,-4.71E-03
1686.34,338.75,-4.00E-03
1699.35,340.65,-9.23E-04
1712.08,342.55,-3.00E-03
1724.61,344.45,-6.03E-03
1736.91,346.35,-4.00E-03
1749.01,348.25,-2.38E-03
1760.96,350.15,-3.00E-03
1772.748,352.05,-4.00E-03
1784.34,353.95,-1.49E-07
1795.81,355.85,-2.01E-03
1807.14,357.75,-3.95E-03
1818.31,359.65,-1.01E-03
1829.38,361.55,-8.88E-04
1840.27,363.45,4.81E-04
1851.06,365.35,2.11E-03
1861.752,367.25,8.92E-04
1872.33,369.15,3.01E-03
1882.854,371.05,2.00E-03
1893.279,372.95,1.20E-04
1903.626,374.85,-1.06E-03
1913.92,376.75,1.01E-03
1924.14,378.65,-9.31E-04
1934.32,380.55,-9.97E-04
1944.45,382.45,-1.40E-04
1954.52,384.35,5.74E-05
1964.56,386.25,-4.10E-06
1974.56,388.15,-2.89E-05
1984.52,390.05,3.91E-06
1994.45,391.95,-2.00E-03
2004.31,393.85,-9.13E-05
2014.15,395.75,-1.02E-09
2023.93,397.65,-2.00E-03
2033.67,399.55,-3.02E-03
2043.38,401.45,-2.99E-03
2053.07,403.35,2.50E-06
2062.677,405.25,-3.02E-03
2072.25,407.15,-5.08E-03
2081.78,409.05,-5.99E-03
2091.31,410.95,-4.00E-03
2100.792,412.85,-5.00E-03
2110.251,414.75,-6.00E-03
2119.686,416.65,-9.09E-03
2129.09,418.55,-1.20E-02
2138.47,420.45,-1.20E-02
2147.841,422.35,-1.70E-02
2157.19,424.25,-1.70E-02
2166.549,426.15,-1.70E-02
2175.89,428.05,-1.90E-02
2185.2,429.95,-2.18E-02
2194.53,431.85,-2.60E-02
2203.851,433.75,-3.10E-02
2213.18,435.65,-3.20E-02
2222.52,437.55,-3.58E-02
2231.86,439.45,-4.00E-02
2241.19,441.35,-4.58E-02
2250.53,443.25,-5.20E-02
2259.86,445.15,-5.88E-02
2269.18,447.05,-6.40E-02
2278.51,448.95,-6.99E-02
2287.85,450.85,-8.05E-02
2297.17,452.75,-8.50E-02
2306.49,454.65,-9.09E-02
2315.817,456.55,-0.10217
2325.15,458.45,-0.11094
2334.46,460.35,-0.11894
2343.77,462.25,-0.12586
2353.08,464.15,-0.13317
2362.39,466.05,-0.14176
2371.71,467.95,-0.15013
2381.05,469.85,-0.15507
2390.373,471.75,-0.16114
2399.69,473.65,-0.16699
2409.06,475.55,-0.17252
2418.41,477.45,-0.17895
2427.79,479.35,-0.18376
2437.17,481.25,-0.18994
2446.55,483.15,-0.195
2455.94,485.05,-0.19878
2465.36,486.95,-0.203
2474.772,488.85,-0.205
2484.192,490.75,-0.205
2493.618,492.65,-0.20744
2503.041,494.55,-0.21107
2512.5,496.45,-0.214
2521.97,498.35,-0.215
2531.442,500.25,-0.217
2540.92,502.15,-0.219
2550.42,504.05,-0.221
2559.93,505.95,-0.221
2569.44,507.85,-0.221
2578.97,509.75,-0.221
2588.51,511.65,-0.22057
2598.06,513.55,-0.22499
2607.6,515.45,-0.22801
2617.18,517.35,-0.22589
2626.78,519.25,-0.226
2636.38,521.15,-0.2291
2645.97,523.05,-0.233
2655.58,524.95,-0.23399
2665.2,526.85,-0.236
2674.84,528.75,-0.238
2684.49,530.65,-0.23823
2694.16,532.55,-0.24289
2703.85,534.45,-0.24785
2713.55,536.35,-0.253
2723.27,538.25,-0.25299
2732.985,540.15,-0.258
2742.74,542.05,-0.25906
2752.51,543.95,-0.26396
2762.3,545.85,-0.268
2772.12,547.75,-0.26979
2781.98,549.65,-0.28203
2791.82,551.55,-0.28811
2801.7,553.45,-0.2959
2811.61,555.35,-0.30285
2821.55,557.25,-0.31
2831.51,559.15,-0.31693
2841.48,561.05,-0.32915
2851.46,562.95,-0.3389
2861.487,564.85,-0.34792
2871.513,566.75,-0.35951
2881.56,568.65,-0.37301
2891.631,570.55,-0.38673
2901.71,572.45,-0.3991
2911.788,574.35,-0.41253
2921.91,576.25,-0.42822
2932.017,578.15,-0.44118
2942.14,580.05,-0.45498
2952.28,581.95,-0.47185
2962.44,583.85,-0.48385
2972.6,585.75,-0.50551
2982.8,587.65,-0.52254
2992.99,589.55,-0.53918
3003.21,591.45,-0.5525
3013.46,593.35,-0.5767
3023.7,595.25,-0.60279
3033.978,597.15,-0.62605
3044.27,599.05,-0.65543
3054.56,600.95,-0.6836
3064.857,602.85,-0.7178
3075.177,604.75,-0.75453
3085.53,606.65,-0.78793
3095.88,608.55,-0.83574
3106.27,610.45,-0.88269
3116.68,612.35,-0.94249
3127.08,614.25,-0.99978
3137.48,616.15,-1.06669
3147.93,618.05,-1.13688
3158.4,619.95,-1.21967
3168.9,621.85,-1.30663
3179.44,623.75,-1.39825
3189.95,625.65,-1.49802
3200.499,627.55,-1.61047
3211.06,629.45,-1.72922
3221.62,631.35,-1.85208
3232.2,633.25,-1.98135
3242.79,635.15,-2.10749
3253.37,637.05,-2.24652
3263.95,638.95,-2.38764
3274.51,640.85,-2.52444
3285.04,642.75,-2.68734
3295.54,644.65,-2.83989
3306.09,646.55,-2.99257
3316.638,648.45,-3.15743
3327.2,650.35,-3.31291
3337.8,652.25,-3.45627
3348.39,654.15,-3.6025
3358.99,656.05,-3.74018
3369.618,657.95,-3.86213
3380.259,659.85,-3.97804
3390.89,661.75,-4.08064
3401.547,663.65,-4.17659
3412.218,665.55,-4.26071
3422.88,667.45,-4.32863
3433.55,669.35,-4.39303
3444.25,671.25,-4.44049
3454.96,673.15,-4.49609
3465.67,675.05,-4.53639
3476.4,676.95,-4.57669
3487.14,678.85,-4.61301
3497.895,680.75,-4.63549
3508.65,682.65,-4.65531
3519.42,684.55,-4.67525
3530.205,686.45,-4.69394
3541,688.35,-4.70597
3551.8,690.25,-4.71797
3562.6,692.15,-4.72615
3573.4,694.05,-4.73703
3584.21,695.95,-4.74408
3595.035,697.85,-4.75211
3605.86,699.75,-4.75899
3616.707,701.65,-4.76411
3627.54,703.55,-4.769
3638.391,705.45,-4.76997
3649.26,707.35,-4.774
3660.15,709.25,-4.772
3671.02,711.15,-4.77464
3681.89,713.05,-4.773
3692.775,714.95,-4.773
3703.67,716.85,-4.773
3714.58,718.75,-4.771
3725.5,720.65,-4.772
3736.43,722.55,-4.771
3747.35,724.45,-4.773
3758.325,726.35,-4.77099
3769.32,728.25,-4.77
3780.33,730.15,-4.77002
3791.337,732.05,-4.771
3802.365,733.95,-4.77298
3813.4,735.85,-4.772
3824.45,737.75,-4.77193
3835.51,739.65,-4.773
3846.58,741.55,-4.77337
3857.67,743.45,-4.77303
3868.776,745.35,-4.771
3879.85,747.25,-4.771
3890.92,749.15,-4.7742
3902.02,751.05,-4.772
3913.14,752.95,-4.77006
3924.26,754.85,-4.77111
3935.382,756.75,-4.773
3946.5,758.65,-4.77199
3957.61,760.55,-4.77003
3968.736,762.45,-4.772
3979.87,764.35,-4.774
3991.01,766.25,-4.771
4002.15,768.15,-4.7702
4013.31,770.05,-4.771
4024.47,771.95,-4.77
4035.68,773.85,-4.77002
4046.86,775.75,-4.769
4058.06,777.65,-4.77103
4069.28,779.55,-4.771
4080.513,781.45,-4.771
4091.74,783.35,-4.77099
4102.97,785.25,-4.773
4114.239,787.15,-4.77052
4125.51,789.05,-4.77101
4136.82,790.95,-4.769
4148.14,792.85,-4.767
4159.47,794.75,-4.767
4170.8,796.65,-4.7751
4182.12,798.55,-4.77526
4193.45,800.45,-4.773
4204.785,802.35,-4.772
4216.122,804.25,-4.773
4227.47,806.15,-4.77
4238.81,808.05,-4.76796
4250.15,809.95,-4.775
4261.49,811.85,-4.775
4272.82,813.75,-4.77108
4284.17,815.65,-4.77707
4295.523,817.55,-4.775
4306.845,819.45,-4.76997
4318.191,821.35,-4.774
4329.558,823.25,-4.76993
4340.91,825.15,-4.7668
4352.283,827.05,-4.77
4363.665,828.95,-4.77198
4375.03,830.85,-4.772
4386.38,832.75,-4.77299
4397.77,834.65,-4.772
4409.13,836.55,-4.77
4420.509,838.45,-4.77
4431.89,840.35,-4.768
4443.27,842.25,-4.768
4454.65,844.15,-4.77407
4466.05,846.05,-4.77396
4477.488,847.95,-4.772
4488.91,849.85,-4.774
4500.35,851.75,-4.775
4511.8,853.65,-4.77302
4523.268,855.55,-4.77517
4534.74,857.45,-4.774
4546.22,859.35,-4.773
4557.72,861.25,-4.77197
4569.23,863.15,-4.77182
4580.75,865.05,-4.776
4592.27,866.95,-4.773
4603.78,868.85,-4.77417
4615.296,870.75,-4.77062
4619.6,871.45,-4.7741

File: SANDIA_TGA_Ar_50K_1.csv
Time,Temperature,Mass
[s],[K],[mg]
1200.1,306.872,-2.00E-03
1303.65,308.572,-8.09E-03
1323.87,310.272,-1.18E-02
1337.42,311.972,-1.43E-02
1347.96,313.672,-1.63E-02
1356.75,315.372,-1.72E-02
1364.37,317.072,-1.85E-02
1371.15,318.772,-2.03E-02
1377.303,320.472,-2.10E-02
1382.94,322.172,-2.29E-02
1388.18,323.872,-2.23E-02
1393.1,325.572,-2.10E-02
1397.74,327.272,-2.21E-02
1402.13,328.972,-2.12E-02
1406.31,330.672,-2.31E-02
1410.32,332.372,-2.38E-02
1414.15,334.072,-2.40E-02
1417.85,335.772,-2.48E-02
1421.41,337.472,-2.63E-02
1424.87,339.172,-2.67E-02
1428.21,340.872,-2.59E-02
1431.462,342.572,-2.60E-02
1434.64,344.272,-2.62E-02
1437.74,345.972,-2.70E-02
1440.76,347.672,-2.74E-02
1443.7,349.372,-2.80E-02
1446.59,351.072,-2.92E-02
1449.43,352.772,-2.95E-02
1452.21,354.472,-3.01E-02
1454.93,356.172,-2.98E-02
1457.607,357.872,-2.89E-02
1460.235,359.572,-2.98E-02
1462.809,361.272,-3.23E-02
1465.34,362.972,-3.09E-02
1467.837,364.672,-3.30E-02
1470.29,366.372,-3.20E-02
1472.697,368.072,-3.30E-02
1475.085,369.772,-3.29E-02
1477.43,371.472,-3.43E-02
1479.75,373.172,-3.45E-02
1482.05,374.872,-3.51E-02
1484.31,376.572,-3.31E-02
1486.55,378.272,-3.22E-02
1488.765,379.972,-3.31E-02
1490.961,381.672,-3.48E-02
1493.14,383.372,-3.39E-02
1495.3,385.072,-3.40E-02
1497.435,386.772,-3.59E-02
1499.55,388.472,-3.69E-02
1501.65,390.172,-3.50E-02
1503.73,391.872,-3.70E-02
1505.79,393.572,-3.74E-02
1507.83,395.272,-3.80E-02
1509.86,396.972,-3.68E-02
1511.87,398.672,-3.90E-02
1513.86,400.372,-3.89E-02
1515.83,402.072,-3.90E-02
1517.78,403.772,-4.10E-02
1519.72,405.472,-4.20E-02
1521.64,407.172,-4.30E-02
1523.54,408.872,-4.40E-02
1525.44,410.572,-4.50E-02
1527.31,412.272,-4.60E-02
1529.18,413.972,-4.58E-02
1531.029,415.672,-4.80E-02
1532.86,417.372,-4.80E-02
1534.69,419.072,-4.89E-02
1536.5,420.772,-5.20E-02
1538.31,422.472,-5.40E-02
1540.1,424.172,-5.40E-02
1541.88,425.872,-5.59E-02
1543.65,427.572,-6.00E-02
1545.41,429.272,-6.20E-02
1547.16,430.972,-6.40E-02
1548.9,432.672,-6.70E-02
1550.64,434.372,-6.88E-02
1552.36,436.072,-7.29E-02
1554.08,437.772,-7.70E-02
1555.79,439.472,-8.09E-02
1557.49,441.172,-8.60E-02
1559.18,442.872,-9.09E-02
1560.87,444.572,-9.68E-02
1562.544,446.272,-0.1041
1564.21,447.972,-0.1108
1565.88,449.672,-0.11981
1567.53,451.372,-0.12813
1569.18,453.072,-0.13938
1570.82,454.772,-0.15129
1572.441,456.472,-0.16277
1574.07,458.172,-0.17285
1575.68,459.872,-0.17901
1577.28,461.572,-0.18696
1578.88,463.272,-0.1939
1580.481,464.972,-0.19895
1582.071,466.672,-0.20578
1583.652,468.372,-0.21062
1585.23,470.072,-0.21601
1586.79,471.772,-0.2211
1588.359,473.472,-0.22699
1589.92,475.172,-0.23306
1591.47,476.872,-0.23978
1593.02,478.572,-0.24361
1594.56,480.272,-0.25025
1596.102,481.972,-0.257
1597.64,483.672,-0.2609
1599.16,485.372,-0.26758
1600.69,487.072,-0.27498
1602.21,488.772,-0.2787
1603.72,490.472,-0.28611
1605.23,492.172,-0.2914
1606.74,493.872,-0.29488
1608.25,495.572,-0.30038
1609.75,497.272,-0.30398
1611.24,498.972,-0.30744
1612.731,500.672,-0.31108
1614.22,502.372,-0.31288
1615.7,504.072,-0.315
1617.18,505.772,-0.31615
1618.659,507.472,-0.31799
1620.129,509.172,-0.32099
1621.59,510.872,-0.32108
1623.06,512.572,-0.32201
1624.52,514.272,-0.32293
1625.97,515.972,-0.32497
1627.43,517.672,-0.32631
1628.88,519.372,-0.32603
1630.32,521.072,-0.32799
1631.76,522.772,-0.32709
1633.2,524.472,-0.32899
1634.64,526.172,-0.33173
1636.07,527.872,-0.33192
1637.51,529.572,-0.33302
1638.93,531.272,-0.33512
1640.36,532.972,-0.33818
1641.78,534.672,-0.33915
1643.2,536.372,-0.33979
1644.61,538.072,-0.34421
1646.03,539.772,-0.34632
1647.438,541.472,-0.34852
1648.85,543.172,-0.3528
1650.25,544.872,-0.35818
1651.66,546.572,-0.36169
1653.06,548.272,-0.36691
1654.47,549.972,-0.37176
1655.862,551.672,-0.37668
1657.26,553.372,-0.38177
1658.658,555.072,-0.38868
1660.053,556.772,-0.39902
1661.45,558.472,-0.40969
1662.837,560.172,-0.41827
1664.226,561.872,-0.42833
1665.61,563.572,-0.43815
1667,565.272,-0.4484
1668.38,566.972,-0.4569
1669.77,568.672,-0.46635
1671.15,570.372,-0.47645
1672.53,572.072,-0.48734
1673.91,573.772,-0.49712
1675.29,575.472,-0.50991
1676.66,577.172,-0.52073
1678.04,578.872,-0.53336
1679.41,580.572,-0.54297
1680.79,582.272,-0.55496
1682.16,583.972,-0.56755
1683.53,585.672,-0.58029
1684.9,587.372,-0.59499
1686.27,589.072,-0.60969
1687.64,590.772,-0.62536
1689,592.472,-0.64151
1690.37,594.172,-0.65809
1691.74,595.872,-0.67665
1693.1,597.572,-0.69607
1694.47,599.272,-0.71753
1695.83,600.972,-0.74056
1697.2,602.672,-0.76635
1698.56,604.372,-0.79309
1699.93,606.072,-0.8216
1701.29,607.772,-0.85085
1702.65,609.472,-0.885
1704.02,611.172,-0.91553
1705.38,612.872,-0.95094
1706.75,614.572,-0.99352
1708.11,616.272,-1.03434
1709.475,617.972,-1.07921
1710.84,619.672,-1.12724
1712.21,621.372,-1.18011
1713.58,623.072,-1.29132
1714.944,624.772,-1.45503
1716.312,626.472,-1.52468
1717.683,628.172,-1.59798
1719.05,629.872,-1.6711
1720.43,631.572,-1.75136
1721.8,633.272,-1.83145
1723.17,634.972,-1.91748
1724.55,636.672,-2.00444
1725.93,638.372,-2.09721
1727.31,640.072,-2.18159
1728.69,641.772,-2.27621
1730.07,643.472,-2.3747
1731.453,645.172,-2.47451
1732.83,646.872,-2.58409
1734.22,648.572,-2.68969
1735.61,650.272,-2.79519
1737,651.972,-2.90403
1738.392,653.672,-3.01389
1739.78,655.372,-3.12043
1741.18,657.072,-3.22904
1742.58,658.772,-3.33303
1743.98,660.472,-3.4457
1745.379,662.172,-3.55069
1746.783,663.872,-3.65932
1748.19,665.572,-3.77031
1749.6,667.272,-3.87602
1751.01,668.972,-3.9702
1752.43,670.672,-4.07203
1753.84,672.372,-4.17336
1755.26,674.072,-4.27045
1756.68,675.772,-4.363
1758.11,677.472,-4.45767
1759.54,679.172,-4.54477
1760.97,680.872,-4.62657
1762.401,682.572,-4.70761
1763.838,684.272,-4.77964
1765.278,685.972,-4.84692
1766.72,687.672,-4.90907
1768.16,689.372,-4.9637
1769.61,691.072,-5.01225
1771.05,692.772,-5.05384
1772.5,694.472,-5.09588
1773.95,696.172,-5.13028
1775.4,697.872,-5.15392
1776.85,699.572,-5.18318
1778.31,701.272,-5.20725
1779.77,702.972,-5.22721
1781.22,704.672,-5.24051
1782.687,706.372,-5.24785
1784.15,708.072,-5.25672
1785.62,709.772,-5.26522
1787.09,711.472,-5.27396
1788.57,713.172,-5.28428
1790.05,714.872,-5.29379
1791.53,716.572,-5.30414
1793.007,718.272,-5.31008
1794.5,719.972,-5.31599
1795.99,721.672,-5.31882
1797.48,723.372,-5.32298
1798.98,725.072,-5.32502
1800.48,726.772,-5.32704
1801.98,728.472,-5.32979
1803.49,730.172,-5.33191
1805,731.872,-5.33421
1806.52,733.572,-5.33508
1808.034,735.272,-5.3338
1809.56,736.972,-5.3351
1811.08,738.672,-5.336
1812.62,740.372,-5.336
1814.15,742.072,-5.33596
1815.69,743.772,-5.336
1817.24,745.472,-5.33501
1818.78,747.172,-5.33602
1820.33,748.872,-5.33688
1821.89,750.572,-5.33501
1823.445,752.272,-5.33585
1825.01,753.972,-5.33506
1826.58,755.672,-5.337
1828.15,757.372,-5.33505
1829.73,759.072,-5.33701
1831.32,760.772,-5.33703
1832.901,762.472,-5.337
1834.5,764.172,-5.33698
1836.09,765.872,-5.33597
1837.69,767.572,-5.33595
1839.29,769.272,-5.33703
1840.9,770.972,-5.337
1842.513,772.672,-5.337
1844.127,774.372,-5.33806
1845.75,776.072,-5.336
1847.373,777.772,-5.33584
1849,779.472,-5.33599
1850.64,781.172,-5.336
1852.27,782.872,-5.33581
1853.91,784.572,-5.33497
1855.56,786.272,-5.33606
1857.21,787.972,-5.33601
1858.86,789.672,-5.33605
1860.52,791.372,-5.33508
1862.18,793.072,-5.33441
1863.85,794.772,-5.33503
1865.52,796.472,-5.33399
1867.2,798.172,-5.335
1868.87,799.872,-5.33493
1870.55,801.572,-5.335
1872.24,803.272,-5.33481
1873.929,804.972,-5.335
1875.621,806.672,-5.33406
1877.32,808.372,-5.33509
1879.02,810.072,-5.33672
1880.73,811.772,-5.33596
1882.44,813.472,-5.33601
1883.93,814.872,-5.33601