Folder: matl-db/PMMA/Validation_Results/Aalto-I-PMMA-Gasification

File: Aalto_I_PMMA_Gasification_q25_Temp.csv
Time,T_back
s,K
0,293.15
5.1,293.15
10.1,293.15
15.1,293.17
20,293.28
25,293.63
30,294.37
35,295.57
40,297.29
45,299.50
50,302.19
55,305.31
60,308.81
65,312.63
70,316.73
75,321.06
80.1,325.67
85.1,330.33
90.1,335.11
95.1,339.97
100.1,344.89
105.1,349.85
110.1,354.83
115.1,359.82
120.1,364.80
125.1,369.76
130.1,374.69
135.1,379.58
140.1,384.43
145.1,389.23
150.1,393.97
155.1,398.64
160.1,403.24
165.1,407.77
170.1,412.22
175.1,416.58
180.1,420.85
185.1,425.04
190.1,429.13
195.1,433.12
200.1,437.02
205.1,440.81
210.1,444.50
215.1,448.09
220.1,451.58
225.1,454.97
230.1,458.25
235.1,461.44
240.1,464.52
245.1,467.52
250.1,470.42
255.1,473.23
260.1,475.95
265.1,478.60
270.1,481.17
275.1,483.67
280.1,486.10
285.1,488.47
290.1,490.79
295.1,493.06
300.1,495.28
305,497.42
310,499.56
315,501.68
320,503.77
325,505.83
330,507.87
335,509.89
340,511.89
345,513.87
350,515.83
355,517.78
360,519.71
365,521.61
370,523.50
375,525.35
380,527.18
385,528.98
390,530.74
395,532.47
400,534.15
405,535.79
410,537.38
415,538.93
420,540.42
425,541.87
430,543.26
435,544.61
440,545.91
445,547.15
450,548.36
455,549.52
460,550.64
465,551.72
470,552.77
475,553.77
480,554.75
485,555.69
490,556.61
495,557.49
500,558.35
505,559.19
510,560.00
515,560.79
520,561.57
525,562.32
530,563.06
535,563.78
540,564.49
545,565.18
550,565.87
555,566.54
560,567.20
565,567.85
570,568.49
575,569.13
580,569.76
585,570.38
590,570.99
595,571.60
600,572.21
605,572.81
610,573.41
615,574.00
620,574.59
625,575.18
630,575.77
635,576.35
640,576.93
645,577.51
650,578.09
655,578.67
660,579.25
665,579.83
670,580.41
675,580.99
680,581.57
685,582.16
690,582.74
695,583.32
700,583.91
705,584.49
710,585.08
715,585.67
720,586.26
725,586.85
730,587.45
735,588.05
740,588.65
745,589.27
750,589.88
755,590.50
760,591.14
765,591.76
770,592.40
775,593.03
780,593.68
785,594.32
790,594.98
795,595.65
800,596.30
805,596.98
810,597.64
815,598.33
820,599.00
825,599.70
830,600.41
835,601.10
840,601.82
845,602.53
850,603.26
855,603.98
860,604.74
865,605.49
870,606.24
875,607.02
880,607.79
885,608.59
890,609.37
895,610.19
900,611.01
905,611.84
910,612.70
915,613.54
920,614.43
925,615.29
930,616.21
935,617.11
940,618.05
945,619.02
950,619.96
955,620.96
960,621.94
965,622.99
970,624.00
975,625.09
980,626.18
985,627.29
990,628.45
995,629.58
1000,630.81
1005,631.98
1010,633.26
1015,634.49
1020,635.84
1025,637.12
1030,638.54
1035,639.90
1040,641.37
1045,642.83
1050,644.33
1055,645.89
1060,647.44
1065,649.06
1070,650.68
1075,652.34
1080,654.06
1085,655.83
1090,657.61
1095,659.53
1100,661.30
1105,663.51
1110,665.52
1115,667.70
1120,670.75
1125,674.20
1130,678.13
1135,682.63
1140,687.73
1145,693.23
1150,698.51
1155,702.63
1160,705.42
1165,707.11
1170,708.24
1175,708.95
1180,709.53
1185,710.65
1190,713.43
1195,713.39
1200,713.55

File: Aalto_I_PMMA_Gasification_q50_Mass.csv
Time,Mass
s,g
0,25.64
2,25.64
4,25.64
6.1,25.64
8.1,25.64
10.1,25.64
12.1,25.64
14.1,25.63
16.1,25.62
18.1,25.61
20,25.60
22,25.58
24,25.56
26,25.54
28,25.52
30,25.49
32,25.46
34,25.42
36,25.38
38,25.33
40,25.28
42,25.21
44,25.15
46,25.07
48,25.00
50,24.92
52,24.83
54,24.75
56,24.66
58,24.57
60,24.47
62,24.37
64,24.27
66,24.17
68,24.07
70,23.96
72,23.86
74,23.75
76.1,23.64
78.1,23.52
80.1,23.41
82.1,23.29
84.1,23.18
86.1,23.06
88.1,22.94
90.1,22.82
92.1,22.70
94.1,22.58
96.1,22.46
98.1,22.33
100.1,22.21
102.1,22.08
104.1,21.95
106.1,21.82
108.1,21.69
110.1,21.56
112.1,21.43
114.1,21.30
116.1,21.16
118.1,21.03
120.1,20.89
122.1,20.75
124.1,20.61
126.1,20.47
128.1,20.33
130.1,20.19
132.1,20.05
134.1,19.90
136.1,19.76
138.1,19.61
140.1,19.47
142.1,19.32
144.1,19.17
146.1,19.02
148.1,18.87
150.1,18.71
152.1,18.56
154.1,18.41
156.1,18.25
158.1,18.09
160.1,17.94
162.1,17.78
164.1,17.62
166.1,17.46
168.1,17.29
170.1,17.13
172.1,16.97
174.1,16.80
176.1,16.64
178.1,16.47
180.1,16.30
182.1,16.13
184.1,15.96
186.1,15.79
188.1,15.62
190.1,15.45
192.1,15.28
194.1,15.10
196.1,14.93
198.1,14.76
200.1,14.58
202.1,14.40
204.1,14.23
206.1,14.05
208.1,13.87
210.1,13.69
212.1,13.52
214.1,13.34
216.1,13.16
218.1,12.98
220.1,12.80
222.1,12.61
224.1,12.43
226.1,12.25
228.1,12.07
230.1,11.88
232.1,11.70
234.1,11.51
236.1,11.32
238.1,11.13
240.1,10.94
242.1,10.75
244.1,10.56
246.1,10.37
248.1,10.17
250.1,9.98
252.1,9.78
254.1,9.58
256.1,9.38
258.1,9.18
260.1,8.98
262.1,8.78
264.1,8.58
266.1,8.38
268.1,8.17
270.1,7.97
272.1,7.76
274.1,7.56
276.1,7.35
278.1,7.15
280.1,6.94
282.1,6.73
284.1,6.52
286.1,6.32
288.1,6.11
290.1,5.90
292.1,5.69
294.1,5.48
296.1,5.27
298.1,5.06
300.1,4.85
302,4.64
304,4.44
306,4.23
308,4.01
310,3.80
312,3.59
314,3.38
316,3.17
318,2.95
320,2.74
322,2.53
324,2.32
326,2.11
328,1.90
330,1.69
332,1.49
334,1.28
336,1.08
338,0.88
340,0.69
342,0.51
344,0.33
346,0.18
348,0.04
350,0.00
352,0.00
354,0.00
356,0.00
358,0.00
360,0.00
362,0.00
364,0.00
366,0.00
368,0.00
370,0.00
372,0.00
374,0.00
376,0.00
378,0.00
380,0.00
382,0.00
384,0.00
386,0.00
388,0.00
390,0.00
392,0.00
394,0.00
396,0.00
398,0.00
400,0.00
402,0.00
404,0.00
406,0.00
408,0.00
410,0.00
412,0.00
414,0.00
416,0.00
418,0.00
420,0.00
422,0.00
424,0.00
426,0.00
428,0.00
430,0.00
432,0.00
434,0.00
436,0.00
438,0.00
440,0.00
442,0.00
444,0.00
446,0.00
448,0.00
450,0.00
452,0.00
454,0.00
456,0.00
458,0.00
460,0.00
462,0.00
464,0.00
466,0.00
468,0.00
470,0.00
472,0.00
474,0.00
476,0.00
478,0.00
480,0.00
482,0.00
484,0.00
486,0.00
488,0.00
490,0.00
492,0.00
494,0.00
496,0.00
498,0.00
500,0.00