Folder: matl-db/PMMA/Validation_Results/Aalto-II-PMMA-Gasification

File: Aalto-II_PMMA_Gasification_q50_Mass.csv
Time,Mass
s,g
0,27.01
2,27.01
4,27.01
6.1,27.01
8.1,27.01
10.1,27.00
12.1,27.00
14.1,26.99
16.1,26.98
18.1,26.97
20,26.96
22,26.95
24,26.93
26,26.92
28,26.90
30,26.88
32,26.85
34,26.81
36,26.77
38,26.72
40,26.67
42,26.61
44,26.55
46,26.48
48,26.41
50,26.34
52,26.26
54,26.17
56,26.09
58,26.00
60,25.91
62,25.81
64,25.71
66,25.62
68,25.52
70,25.41
72,25.31
74,25.20
76.1,25.09
78.1,24.98
80.1,24.87
82.1,24.76
84.1,24.65
86.1,24.53
88.1,24.42
90.1,24.30
92.1,24.19
94.1,24.07
96.1,23.95
98.1,23.83
100.1,23.71
102.1,23.58
104.1,23.46
106.1,23.34
108.1,23.21
110.1,23.08
112.1,22.96
114.1,22.83
116.1,22.70
118.1,22.57
120.1,22.44
122.1,22.31
124.1,22.18
126.1,22.04
128.1,21.91
130.1,21.77
132.1,21.64
134.1,21.50
136.1,21.37
138.1,21.23
140.1,21.09
142.1,20.95
144.1,20.81
146.1,20.67
148.1,20.53
150.1,20.38
152.1,20.24
154.1,20.10
156.1,19.95
158.1,19.81
160.1,19.66
162.1,19.51
164.1,19.36
166.1,19.22
168.1,19.07
170.1,18.92
172.1,18.76
174.1,18.61
176.1,18.46
178.1,18.31
180.1,18.15
182.1,18.00
184.1,17.84
186.1,17.68
188.1,17.53
190.1,17.37
192.1,17.21
194.1,17.05
196.1,16.89
198.1,16.73
200.1,16.57
202.1,16.41
204.1,16.24
206.1,16.08
208.1,15.92
210.1,15.75
212.1,15.59
214.1,15.42
216.1,15.26
218.1,15.09
220.1,14.92
222.1,14.76
224.1,14.59
226.1,14.42
228.1,14.25
230.1,14.08
232.1,13.91
234.1,13.74
236.1,13.57
238.1,13.40
240.1,13.22
242.1,13.05
244.1,12.87
246.1,12.70
248.1,12.52
250.1,12.35
252.1,12.17
254.1,11.99
256.1,11.81
258.1,11.62
260.1,11.44
262.1,11.26
264.1,11.07
266.1,10.88
268.1,10.70
270.1,10.51
272.1,10.31
274.1,10.12
276.1,9.93
278.1,9.73
280.1,9.53
282.1,9.34
284.1,9.14
286.1,8.93
288.1,8.73
290.1,8.53
292.1,8.32
294.1,8.11
296.1,7.90
298.1,7.69
300.1,7.48
302,7.27
304,7.06
306,6.85
308,6.63
310,6.41
312,6.19
314,5.97
316,5.74
318,5.52
320,5.29
322,5.07
324,4.84
326,4.61
328,4.38
330,4.14
332,3.91
334,3.67
336,3.44
338,3.20
340,2.96
342,2.72
344,2.48
346,2.23
348,1.99
350,1.74
352,1.50
354,1.25
356,1.00
358,0.76
360,0.52
362,0.31
364,0.21
366,0.20
368,0.20
370,0.20
372,0.20
374,0.20
376,0.20
378,0.20
380,0.20
382,0.20
384,0.20
386,0.19
388,0.19
390,0.19
392,0.19
394,0.19
396,0.19
398,0.19
400,0.19
402,0.19
404,0.19
406,0.19
408,0.18
410,0.18
412,0.18
414,0.18
416,0.18
418,0.18
420,0.18
422,0.18
424,0.18
426,0.18
428,0.18
430,0.18
432,0.17
434,0.17
436,0.17
438,0.17
440,0.17
442,0.17
444,0.17
446,0.17
448,0.17
450,0.17
452,0.17
454,0.17
456,0.16
458,0.16
460,0.16
462,0.16
464,0.16
466,0.16
468,0.16
470,0.16
472,0.16
474,0.16
476,0.16
478,0.16
480,0.16
482,0.15
484,0.15
486,0.15
488,0.15
490,0.15
492,0.15
494,0.15
496,0.15
498,0.15
500,0.15
,
,
,
,
,
,
,
,
,
,
,
,
,
,
,
,
,
,
,
,
,
,
,
,
,
,
,
,
,
,
,
,
,
,
,
,
,
,
,
,
,
,
,
,
,
,
,
,
,
,
,
,
,
,
,
,
,
,
,
,
,
,
,
,
,
,
,
,
,
,
,
,
,
,
,
,
,
,
,
,
,
,
,
,
,
,
,
,
,
,
,
,
,
,
,
,
,
,
,
,

File: Aalto_II_PMMA_Gasification_q25_Mass.csv
Time,Mass
s,g
0,27.01
5.1,27.01
10.1,27.01
15.1,27.01
20,27.01
25,27
30,27
35,26.99
40,26.99
45,26.98
50,26.96
55,26.95
60,26.94
65,26.92
70,26.91
75,26.9
80.1,26.88
85.1,26.87
90.1,26.85
95.1,26.84
100.1,26.82
105.1,26.81
110.1,26.79
115.1,26.77
120.1,26.75
125.1,26.73
130.1,26.71
135.1,26.69
140.1,26.66
145.1,26.63
150.1,26.6
155.1,26.57
160.1,26.54
165.1,26.5
170.1,26.46
175.1,26.41
180.1,26.37
185.1,26.32
190.1,26.27
195.1,26.22
200.1,26.16
205.1,26.1
210.1,26.04
215.1,25.97
220.1,25.91
225.1,25.84
230.1,25.76
235.1,25.69
240.1,25.61
245.1,25.53
250.1,25.45
255.1,25.37
260.1,25.28
265.1,25.19
270.1,25.1
275.1,25.01
280.1,24.91
285.1,24.82
290.1,24.72
295.1,24.62
300.1,24.52
305,24.42
310,24.32
315,24.21
320,24.11
325,24
330,23.9
335,23.79
340,23.68
345,23.57
350,23.46
355,23.35
360,23.23
365,23.12
370,23
375,22.89
380,22.77
385,22.65
390,22.53
395,22.41
400,22.29
405,22.17
410,22.04
415,21.92
420,21.79
425,21.66
430,21.53
435,21.4
440,21.27
445,21.13
450,21
455,20.86
460,20.72
465,20.58
470,20.44
475,20.3
480,20.16
485,20.01
490,19.87
495,19.72
500,19.57
505,19.42
510,19.27
515,19.12
520,18.97
525,18.81
530,18.66
535,18.5
540,18.34
545,18.19
550,18.03
555,17.87
560,17.71
565,17.55
570,17.38
575,17.22
580,17.06
585,16.89
590,16.73
595,16.56
600,16.39
605,16.22
610,16.06
615,15.89
620,15.72
625,15.55
630,15.37
635,15.2
640,15.03
645,14.86
650,14.68
655,14.51
660,14.34
665,14.16
670,13.98
675,13.81
680,13.63
685,13.46
690,13.28
695,13.1
700,12.92
705,12.74
710,12.56
715,12.39
720,12.21
725,12.03
730,11.85
735,11.66
740,11.48
745,11.3
750,11.12
755,10.94
760,10.76
765,10.57
770,10.39
775,10.21
780,10.02
785,9.84
790,9.66
795,9.47
800,9.29
805,9.1
810,8.92
815,8.73
820,8.54
825,8.36
830,8.17
835,7.99
840,7.8
845,7.61
850,7.43
855,7.24
860,7.05
865,6.86
870,6.67
875,6.49
880,6.3
885,6.11
890,5.92
895,5.73
900,5.54
905,5.35
910,5.16
915,4.97
920,4.78
925,4.59
930,4.4
935,4.22
940,4.03
945,3.84
950,3.65
955,3.46
960,3.27
965,3.08
970,2.89
975,2.71
980,2.52
985,2.33
990,2.15
995,1.96
1000,1.78
1005,1.6
1010,1.42
1015,1.25
1020,1.07
1025,0.91
1030,0.74
1035,0.59
1040,0.44
1045,0.31
1050,0.19
1055,0.11
1060,0.08
1065,0.07
1070,0.07
1075,0.07
1080,0.07
1085,0.07
1090,0.07
1095,0.07
1100,0.06
1105,0.06
1110,0.06
1115,0.06
1120,0.06
1125,0.06
1130,0.06
1135,0.06
1140,0.06
1145,0.06
1150,0.06
1155,0.06
1160,0.06
1165,0.06
1170,0.06
1175,0.06
1180,0.05
1185,0.05
1190,0.05
1195,0.05
1200,0.05