Folder: matl-db/PMMA/Validation_Results/Aalto-Model 1-PMMA-Gasification

File: Aalto_I_PMMA_Gasification_q25_Mass.csv
Time,Mass
s,g
0,25.64
5.1,25.64
10.1,25.64
15.1,25.64
20,25.64
25,25.64
30,25.64
35,25.64
40,25.63
45,25.63
50,25.62
55,25.61
60,25.60
65,25.58
70,25.56
75,25.55
80.1,25.53
85.1,25.51
90.1,25.49
95.1,25.47
100.1,25.46
105.1,25.44
110.1,25.42
115.1,25.40
120.1,25.38
125.1,25.36
130.1,25.34
135.1,25.32
140.1,25.29
145.1,25.26
150.1,25.23
155.1,25.20
160.1,25.17
165.1,25.13
170.1,25.09
175.1,25.05
180.1,25.00
185.1,24.95
190.1,24.90
195.1,24.85
200.1,24.79
205.1,24.73
210.1,24.67
215.1,24.60
220.1,24.54
225.1,24.46
230.1,24.39
235.1,24.31
240.1,24.23
245.1,24.15
250.1,24.07
255.1,23.98
260.1,23.89
265.1,23.80
270.1,23.71
275.1,23.61
280.1,23.52
285.1,23.42
290.1,23.32
295.1,23.22
300.1,23.11
305,23.01
310,22.91
315,22.80
320,22.69
325,22.58
330,22.47
335,22.36
340,22.25
345,22.14
350,22.03
355,21.91
360,21.80
365,21.69
370,21.57
375,21.45
380,21.34
385,21.22
390,21.10
395,20.98
400,20.86
405,20.74
410,20.62
415,20.50
420,20.37
425,20.25
430,20.12
435,20.00
440,19.87
445,19.74
450,19.61
455,19.48
460,19.34
465,19.21
470,19.08
475,18.94
480,18.81
485,18.67
490,18.53
495,18.39
500,18.26
505,18.12
510,17.98
515,17.84
520,17.69
525,17.55
530,17.41
535,17.27
540,17.13
545,16.98
550,16.84
555,16.69
560,16.55
565,16.40
570,16.26
575,16.11
580,15.97
585,15.82
590,15.68
595,15.53
600,15.38
605,15.24
610,15.09
615,14.94
620,14.79
625,14.65
630,14.50
635,14.35
640,14.20
645,14.05
650,13.90
655,13.76
660,13.61
665,13.46
670,13.31
675,13.16
680,13.01
685,12.86
690,12.71
695,12.56
700,12.41
705,12.26
710,12.11
715,11.96
720,11.81
725,11.66
730,11.51
735,11.36
740,11.21
745,11.06
750,10.91
755,10.75
760,10.60
765,10.45
770,10.30
775,10.15
780,10.00
785,9.85
790,9.70
795,9.54
800,9.39
805,9.24
810,9.09
815,8.94
820,8.79
825,8.63
830,8.48
835,8.33
840,8.18
845,8.03
850,7.87
855,7.72
860,7.57
865,7.42
870,7.26
875,7.11
880,6.96
885,6.81
890,6.66
895,6.50
900,6.35
905,6.20
910,6.05
915,5.90
920,5.75
925,5.59
930,5.44
935,5.29
940,5.14
945,4.99
950,4.84
955,4.69
960,4.54
965,4.39
970,4.24
975,4.09
980,3.94
985,3.79
990,3.65
995,3.50
1000,3.35
1005,3.21
1010,3.06
1015,2.92
1020,2.77
1025,2.63
1030,2.49
1035,2.35
1040,2.21
1045,2.07
1050,1.93
1055,1.80
1060,1.66
1065,1.53
1070,1.40
1075,1.28
1080,1.15
1085,1.03
1090,0.91
1095,0.80
1100,0.69
1105,0.59
1110,0.49
1115,0.40
1120,0.31
1125,0.24
1130,0.17
1135,0.11
1140,0.07
1145,0.03
1150,0.01
1155,0.00
1160,0.00
1165,0.00
1170,0.00
1175,0.00
1180,0.00
1185,0.00
1190,0.00
1195,0.00
1200,0.00