Folder: matl-db/PMMA/Validation_Results/BUW-FZJ (part 2)

File: BUW-FZJ-C_Gasification_q50_Mass_R5.csv
Time,Mass
[s],[g]
0.0,28.3513
2.1128,28.3513
4.0496,28.351
6.1624,28.3495
8.0991,28.3441
10.0359,28.3317
12.1487,28.3165
14.0855,28.3029
16.0222,28.2882
18.135,28.2718
20.0718,28.2536
22.0085,28.2313
24.1213,28.2047
26.0581,28.1746
28.1709,28.1361
30.1077,28.0952
32.0444,28.0467
34.1572,27.9922
36.094,27.9345
38.0307,27.8686
40.1435,27.7973
42.0803,27.7242
44.017,27.6432
46.1299,27.5577
48.0666,27.472
50.0034,27.3788
52.1162,27.282
54.0529,27.1819
56.1657,27.0789
58.1025,26.9778
60.0392,26.8696
62.1521,26.7591
64.0888,26.6513
66.0256,26.5367
68.1384,26.4202
70.0751,26.3071
72.0119,26.1873
74.1247,26.066
76.0614,25.9487
78.1743,25.8194
80.111,25.6996
82.0478,25.5733
84.1606,25.4459
86.0973,25.3231
88.0341,25.1937
90.1469,25.0634
92.0837,24.938
94.0204,24.806
96.1332,24.6733
98.07,24.5457
100.0067,24.4115
102.1195,24.2766
104.0563,24.1411
106.1691,24.0049
108.1059,23.8741
110.0426,23.7368
112.1554,23.5989
114.0922,23.4666
116.0289,23.3276
118.1417,23.1882
120.0785,23.0544
122.0152,22.914
124.1281,22.7731
126.0648,22.638
128.0016,22.4963
130.1144,22.3542
132.0511,22.2117
134.1639,22.0688
136.1007,21.9317
138.0374,21.7881
140.1503,21.6441
142.087,21.506
144.0238,21.3613
146.1366,21.2163
148.0733,21.0773
150.0101,20.9317
152.1229,20.7857
154.0596,20.6458
156.1725,20.4929
158.1092,20.3525
160.046,20.2054
162.1588,20.0581
164.0955,19.9169
166.0323,19.769
168.1451,19.6209
170.0818,19.479
172.0186,19.3305
174.1314,19.1817
176.0682,19.0391
178.0049,18.8899
180.1177,18.7405
182.0545,18.5908
184.1673,18.441
186.104,18.2974
188.0408,18.1472
190.1536,17.9968
192.0904,17.8527
194.0271,17.7019
196.1399,17.551
198.0767,17.4064
200.0134,17.2551
202.1263,17.1036
204.063,16.9586
206.1758,16.8002
208.1126,16.6548
210.0493,16.5027
212.1621,16.3505
214.0989,16.2047
216.0356,16.0521
218.1485,15.8993
220.0852,15.7531
222.022,15.6001
224.1348,15.447
226.0715,15.3003
228.0083,15.1468
230.1211,14.9932
232.0578,14.8462
234.1707,14.6856
236.1074,14.5382
238.0442,14.384
240.157,14.2297
242.0937,14.0819
244.0305,13.9273
246.1433,13.7725
248.08,13.6243
250.0168,13.4692
252.1296,13.314
254.0664,13.1653
256.0031,13.0098
258.1159,12.854
260.0527,12.6981
262.1655,12.5421
264.1023,12.3927
266.039,12.2363
268.1518,12.0798
270.0886,11.9299
272.0253,11.773
274.1381,11.6159
276.0749,11.4655
278.0116,11.3081
280.1245,11.1504
282.0612,10.9994
284.174,10.8342
286.1108,10.6825
288.0475,10.5232
290.1603,10.3632
292.0971,10.2093
294.0338,10.0471
296.1467,9.8837
298.0834,9.7257
300.0202,9.5589
302.133,9.3899
304.0697,9.2261
306.0065,9.0522
308.1193,8.8752
310.056,8.6946
312.1689,8.5099
314.1056,8.3299
316.0424,8.1381
318.1552,7.9422
320.0919,7.7513
322.0287,7.5483
324.1415,7.342
326.0783,7.1421
328.015,6.9307
330.1278,6.7172
332.0646,6.5113
334.0013,6.2948
336.1141,6.0772
338.0509,5.8587
340.1637,5.6397
342.1005,5.4298
344.0372,5.2101
346.15,4.9905
348.0868,4.7805
350.0235,4.5612
352.1363,4.3423
354.0731,4.1334
356.0098,3.9157
358.1226,3.6988
360.0594,3.4922
362.1722,3.268
364.109,3.0637
366.0457,2.8515
368.1585,2.641
370.0953,2.4412
372.032,2.2344
374.1449,2.0298
376.0816,1.8363
378.0184,1.6367
380.1312,1.4403
382.0679,1.2556
384.0047,1.066
386.1175,0.881
388.0542,0.7013
390.1671,0.5283
392.1038,0.3703
394.0406,0.2163
396.1534,0.0832
398.0901,0.0064
400.0269,0.0
402.1397,0.0
404.0764,0.0
406.0132,0.0
408.126,0.0
410.0628,0.0
412.1756,0.0
414.1123,0.0
416.0491,0.0
418.1619,0.0
420.0986,0.0
422.0354,0.0
424.1482,0.0
426.085,0.0
428.0217,0.0
430.1345,0.0
432.0713,0.0
434.008,0.0
436.1208,0.0
438.0576,0.0
440.1704,0.0
442.1072,0.0
444.0439,0.0
446.1567,0.0
448.0935,0.0
450.0302,0.0
452.1431,0.0
454.0798,0.0
456.0166,0.0
458.1294,0.0
460.0661,0.0
462.0029,0.0
464.1157,0.0
466.0524,0.0
468.1653,0.0
470.102,0.0
472.0388,0.0
474.1516,0.0
476.0883,0.0
478.0251,0.0
480.1379,0.0
482.0746,0.0
484.0114,0.0
486.1242,0.0
488.061,0.0
490.1738,0.0
492.1105,0.0
494.0473,0.0
496.1601,0.0
498.0968,0.0
500.0,0.0

File: BUW-FZJ-C_Gasification_q50_MLR_R3.csv
Time,MLR_CH4,MLR_CO2,MLR_Combined
[s],[g/m2/s],[g/m2/s],[g/m2/s]
0.0,0.0,0.0,0.0
2.1128,0.0007,0.003,0.0037
4.0496,0.034,0.0314,0.0654
6.1624,0.2585,0.1044,0.3629
8.0991,0.8786,0.2222,1.1008
10.0359,1.5501,0.3717,1.9219
12.1487,1.3787,0.4945,1.8732
14.0855,1.2771,0.5536,1.8307
16.0222,1.3887,0.5852,1.9739
18.135,1.6048,0.6355,2.2402
20.0718,1.8865,0.7222,2.6088
22.0085,2.2473,0.857,3.1043
24.1213,2.6627,1.0344,3.6971
26.0581,3.0994,1.24,4.3394
28.1709,3.5995,1.4958,5.0953
30.1077,4.0664,1.7532,5.8196
32.0444,4.5533,2.04,6.5933
34.1572,5.0222,2.3363,7.3585
36.094,5.4472,2.6221,8.0694
38.0307,5.8669,2.9227,8.7896
40.1435,6.2537,3.2179,9.4716
42.0803,6.5915,3.4928,10.0843
44.017,6.9103,3.7703,10.6805
46.1299,7.1959,4.0361,11.232
48.0666,7.4427,4.2819,11.7246
50.0034,7.6723,4.5273,12.1996
52.1162,7.8766,4.7619,12.6384
54.0529,8.0574,4.9855,13.0429
56.1657,8.2115,5.1942,13.4057
58.1025,8.3451,5.3884,13.7336
60.0392,8.471,5.5847,14.0558
62.1521,8.5755,5.765,14.3405
64.0888,8.6684,5.9368,14.6052
66.0256,8.7516,6.1041,14.8557
68.1384,8.8212,6.2633,15.0845
70.0751,8.8844,6.413,15.2973
72.0119,8.9373,6.5579,15.4951
74.1247,8.987,6.7017,15.6887
76.0614,9.0257,6.828,15.8538
78.1743,9.0657,6.968,16.0336
80.111,9.0936,7.0824,16.1761
82.0478,9.1229,7.2059,16.3288
84.1606,9.1457,7.3178,16.4635
86.0973,9.1668,7.4271,16.5938
88.0341,9.1843,7.5311,16.7153
90.1469,9.1993,7.6339,16.8331
92.0837,9.2145,7.729,16.9436
94.0204,9.2243,7.8219,17.0462
96.1332,9.238,7.9159,17.1538
98.07,9.2442,7.9974,17.2416
100.0067,9.255,8.084,17.339
102.1195,9.2618,8.1656,17.4273
104.0563,9.2686,8.2431,17.5117
106.1691,9.2759,8.3195,17.5954
108.1059,9.2818,8.3906,17.6723
110.0426,9.2859,8.4576,17.7434
112.1554,9.2932,8.5283,17.8215
114.0922,9.2974,8.5905,17.888
116.0289,9.303,8.6526,17.9556
118.1417,9.3091,8.7166,18.0257
120.0785,9.3147,8.7712,18.0859
122.0152,9.319,8.8276,18.1467
124.1281,9.3249,8.8819,18.2067
126.0648,9.3313,8.934,18.2653
128.0016,9.3368,8.9846,18.3214
130.1144,9.3427,9.0335,18.3763
132.0511,9.3482,9.0813,18.4296
134.1639,9.3546,9.1258,18.4803
136.1007,9.361,9.1691,18.5301
138.0374,9.368,9.2132,18.5811
140.1503,9.3739,9.2516,18.6255
142.087,9.3805,9.2897,18.6702
144.0238,9.3868,9.3254,18.7123
146.1366,9.3945,9.3646,18.7591
148.0733,9.4011,9.3962,18.7973
150.0101,9.408,9.4316,18.8395
152.1229,9.4155,9.4636,18.8791
154.0596,9.4226,9.4942,18.9168
156.1725,9.4309,9.5258,18.9567
158.1092,9.4379,9.5541,18.992
160.046,9.4453,9.581,19.0263
162.1588,9.454,9.6091,19.0631
164.0955,9.4619,9.6336,19.0955
166.0323,9.4702,9.6587,19.1289
168.1451,9.4791,9.6832,19.1624
170.0818,9.4868,9.7049,19.1916
172.0186,9.4954,9.728,19.2234
174.1314,9.5038,9.7494,19.2532
176.0682,9.5121,9.7693,19.2814
178.0049,9.5208,9.79,19.3108
180.1177,9.5289,9.8091,19.338
182.0545,9.5381,9.828,19.3661
184.1673,9.5477,9.8465,19.3942
186.104,9.5564,9.8637,19.4201
188.0408,9.566,9.8797,19.4457
190.1536,9.5754,9.8956,19.471
192.0904,9.5846,9.9106,19.4952
194.0271,9.5945,9.9258,19.5202
196.1399,9.6042,9.9407,19.5449
198.0767,9.6134,9.9542,19.5676
200.0134,9.6236,9.9689,19.5925
202.1263,9.634,9.9822,19.6162
204.063,9.6423,9.9918,19.6341
206.1758,9.6533,10.0103,19.6636
208.1126,9.6657,10.0329,19.6986
210.0493,9.6718,10.0257,19.6976
212.1621,9.6866,10.0412,19.7277
214.0989,9.6959,10.0548,19.7507
216.0356,9.709,10.0712,19.7802
218.1485,9.7174,10.0802,19.7976
220.0852,9.7291,10.0924,19.8215
222.022,9.7401,10.102,19.8421
224.1348,9.7506,10.1121,19.8627
226.0715,9.7622,10.1234,19.8856
228.0083,9.774,10.1345,19.9085
230.1211,9.785,10.1455,19.9305
232.0578,9.7953,10.1563,19.9516
234.1707,9.8066,10.1683,19.975
236.1074,9.8168,10.1794,19.9962
238.0442,9.8276,10.1919,20.0194
240.157,9.838,10.2048,20.0428
242.0937,9.8472,10.2175,20.0648
244.0305,9.8563,10.2309,20.0871
246.1433,9.8646,10.2456,20.1102
248.08,9.8717,10.2604,20.1321
250.0168,9.8783,10.2766,20.1548
252.1296,9.8839,10.2947,20.1785
254.0664,9.8876,10.3127,20.2003
256.0031,9.8904,10.3335,20.224
258.1159,9.8924,10.356,20.2483
260.0527,9.8938,10.3812,20.275
262.1655,9.896,10.4088,20.3048
264.1023,9.8999,10.4383,20.3382
266.039,9.9086,10.4724,20.381
268.1518,9.9249,10.5107,20.4355
270.0886,9.9504,10.5522,20.5026
272.0253,9.9945,10.6081,20.6027
274.1381,10.0655,10.6841,20.7496
276.0749,10.1497,10.7556,20.9053
278.0116,10.2578,10.8409,21.0987
280.1245,10.3882,10.9404,21.3286
282.0612,10.5283,11.042,21.5703
284.174,10.7023,11.1723,21.8746
286.1108,10.8821,11.3089,22.191
288.0475,11.0931,11.4734,22.5665
290.1603,11.3384,11.6671,23.0055
292.0971,11.6098,11.889,23.4988
294.0338,11.9146,12.1338,24.0485
296.1467,12.1701,12.3419,24.512
298.0834,12.4207,12.5864,25.0071
300.0202,12.6636,12.8414,25.505
302.133,12.8838,13.1043,25.9881
304.0697,13.0644,13.3435,26.4079
306.0065,13.2169,13.577,26.7939
308.1193,13.3292,13.7936,27.1227
310.056,13.4115,14.0027,27.4142
312.1689,13.4545,14.1878,27.6423
314.1056,13.4644,14.3515,27.8159
316.0424,13.4537,14.528,27.9817
318.1552,13.4082,14.674,28.0823
320.0919,13.3467,14.8257,28.1724
322.0287,13.2594,14.9751,28.2346
324.1415,13.1444,15.1099,28.2544
326.0783,13.0209,15.2476,28.2686
328.015,12.8687,15.3828,28.2515
330.1278,12.699,15.5271,28.2261
332.0646,12.5191,15.6658,28.1849
334.0013,12.3059,15.7949,28.1008
336.1141,12.0819,15.9507,28.0326
338.0509,11.8316,16.0877,27.9193
340.1637,11.5631,16.24,27.8031
342.1005,11.2905,16.3876,27.6781
344.0372,10.9772,16.5236,27.5007
346.15,10.6487,16.6811,27.3298
348.0868,10.3135,16.8253,27.1388
350.0235,9.9343,16.9499,26.8842
352.1363,9.5459,17.1119,26.6578
354.0731,9.1502,17.248,26.3982
356.0098,8.7062,17.3509,26.0571
358.1226,8.2415,17.4587,25.7002
360.0594,7.7901,17.5719,25.362
362.1722,7.2757,17.672,24.9476
364.109,6.76,17.6501,24.4101
366.0457,6.2019,17.5809,23.7828
368.1585,5.6546,17.5562,23.2107
370.0953,5.0977,17.3783,22.476
372.032,4.5028,17.0556,21.5584
374.1449,3.8695,16.3404,20.2099
376.0816,3.1893,14.7082,17.8976
378.0184,2.2971,9.9614,12.2584
380.1312,0.2999,0.0691,0.369
382.0679,0.0,0.0,0.0
384.0047,0.0,0.0,0.0
386.1175,0.0,0.0,0.0
388.0542,0.0,0.0,0.0
390.1671,0.0,0.0,0.0
392.1038,0.0,0.0,0.0
394.0406,0.0,0.0,0.0
396.1534,0.0,0.0,0.0
398.0901,0.0,0.0,0.0
400.0269,0.0,0.0,0.0
402.1397,0.0,0.0,0.0
404.0764,0.0,0.0,0.0
406.0132,0.0,0.0,0.0
408.126,0.0,0.0,0.0
410.0628,0.0,0.0,0.0
412.1756,0.0,0.0,0.0
414.1123,0.0,0.0,0.0
416.0491,0.0,0.0,0.0
418.1619,0.0,0.0,0.0
420.0986,0.0,0.0,0.0
422.0354,0.0,0.0,0.0
424.1482,0.0,0.0,0.0
426.085,0.0,0.0,0.0
428.0217,0.0,0.0,0.0
430.1345,0.0,0.0,0.0
432.0713,0.0,0.0,0.0
434.008,0.0,0.0,0.0
436.1208,0.0,0.0,0.0
438.0576,0.0,0.0,0.0
440.1704,0.0,0.0,0.0
442.1072,0.0,0.0,0.0
444.0439,0.0,0.0,0.0
446.1567,0.0,0.0,0.0
448.0935,0.0,0.0,0.0
450.0302,0.0,0.0,0.0
452.1431,0.0,0.0,0.0
454.0798,0.0,0.0,0.0
456.0166,0.0,0.0,0.0
458.1294,0.0,0.0,0.0
460.0661,0.0,0.0,0.0
462.0029,0.0,0.0,0.0
464.1157,0.0,0.0,0.0
466.0524,0.0,0.0,0.0
468.1653,0.0,0.0,0.0
470.102,0.0,0.0,0.0
472.0388,0.0,0.0,0.0
474.1516,0.0,0.0,0.0
476.0883,0.0,0.0,0.0
478.0251,0.0,0.0,0.0
480.1379,0.0,0.0,0.0
482.0746,0.0,0.0,0.0
484.0114,0.0,0.0,0.0
486.1242,0.0,0.0,0.0
488.061,0.0,0.0,0.0
490.1738,0.0,0.0,0.0
492.1105,0.0,0.0,0.0
494.0473,0.0,0.0,0.0
496.1601,0.0,0.0,0.0
498.0968,0.0,0.0,0.0
500.0,0.0,0.0,0.0

File: BUW-FZJ-C_Gasification_q50_Temp_R5.csv
Time,T_back_1
[s],[K]
0.0,291.67
2.1128,291.6699
4.0496,291.6698
6.1624,291.6697
8.0991,291.67
10.0359,291.6742
12.1487,291.6942
14.0855,291.7477
16.0222,291.864
18.135,292.0664
20.0718,292.3563
22.0085,292.7709
24.1213,293.3053
26.0581,293.9272
28.1709,294.7255
30.1077,295.5612
32.0444,296.5334
34.1572,297.5992
36.094,298.6976
38.0307,299.9209
40.1435,301.2138
42.0803,302.5081
44.017,303.9151
46.1299,305.3711
48.0666,306.8038
50.0034,308.338
52.1162,309.9046
54.0529,311.498
56.1657,313.114
58.1025,314.6766
60.0392,316.3238
62.1521,317.9808
64.0888,319.5711
66.0256,321.235
68.1384,322.8962
70.0751,324.4779
72.0119,326.1289
74.1247,327.7795
76.0614,329.3567
78.1743,331.0749
80.111,332.6468
82.0478,334.2863
84.1606,335.9212
86.0973,337.4797
88.0341,339.1031
90.1469,340.7198
92.0837,342.2591
94.0204,343.8603
96.1332,345.453
98.07,346.9675
100.0067,348.5413
102.1195,350.105
104.0563,351.6578
106.1691,353.1992
108.1059,354.6626
110.0426,356.1805
112.1554,357.6863
114.0922,359.1138
116.0289,360.5936
118.1417,362.0582
120.0785,363.4457
122.0152,364.8811
124.1281,366.3012
126.0648,367.6436
128.0016,369.0296
130.1144,370.3967
132.0511,371.7435
134.1639,373.0686
136.1007,374.3146
138.0374,375.5977
140.1503,376.8645
142.087,378.0643
144.0238,379.3076
146.1366,380.5415
148.0733,381.7138
150.0101,382.9331
152.1229,384.1469
154.0596,385.3038
156.1725,386.5622
158.1092,387.7135
160.046,388.9143
162.1588,390.1146
164.0955,391.2629
166.0323,392.4642
168.1451,393.6675
170.0818,394.8199
172.0186,396.0285
174.1314,397.2405
176.0682,398.4042
178.0049,399.626
180.1177,400.8546
182.0545,402.0908
184.1673,403.3345
186.104,404.5327
188.0408,405.7945
190.1536,407.0675
192.0904,408.2965
194.0271,409.5942
196.1399,410.905
198.0767,412.1737
200.0134,413.516
202.1263,414.8765
204.063,416.1966
206.1758,417.6593
208.1126,419.0225
210.0493,420.4725
212.1621,421.9508
214.0989,423.3953
216.0356,424.9354
218.1485,426.501
220.0852,428.0215
222.022,429.6354
224.1348,431.276
226.0715,432.871
228.0083,434.5663
230.1211,436.2915
232.0578,437.9712
234.1707,439.8384
236.1074,441.583
238.0442,443.443
240.157,445.3423
242.0937,447.1979
244.0305,449.1804
246.1433,451.2102
248.08,453.1979
250.0168,455.3278
252.1296,457.5149
254.0664,459.6654
256.0031,461.9788
258.1159,464.3656
260.0527,466.8327
262.1655,469.3907
264.1023,471.9329
266.039,474.7065
268.1518,477.6112
270.0886,480.5099
272.0253,483.6707
274.1381,486.9714
276.0749,490.2655
278.0116,493.8603
280.1245,497.6218
282.0612,501.3844
284.174,505.6834
286.1108,509.8146
288.0475,514.341
290.1603,519.1012
292.0971,523.8797
294.0338,529.1313
296.1467,534.6846
298.0834,540.2872
300.0202,546.5107
302.133,553.2102
304.0697,560.2084
306.0065,568.4986
308.1193,578.0487
310.056,585.7921
312.1689,592.0336
314.1056,597.1725
316.0424,601.8173
318.1552,605.9007
320.0919,609.3858
322.0287,612.6783
324.1415,615.6662
326.0783,618.2909
328.015,620.8192
330.1278,623.1825
332.0646,625.3078
334.0013,627.4095
336.1141,629.4354
338.0509,631.3857
340.1637,633.2831
342.1005,635.063
344.0372,636.9005
346.15,638.7247
348.0868,640.4644
350.0235,642.2755
352.1363,644.1055
354.0731,645.863
356.0098,647.7176
358.1226,649.6028
360.0594,651.4287
362.1722,653.4547
364.109,655.3582
366.0457,657.3881
368.1585,659.4903
370.0953,661.5534
372.032,663.7668
374.1449,666.1098
376.0816,668.4419
378.0184,670.9663
380.1312,673.7133
382.0679,676.4845
384.0047,679.6333
386.1175,683.0426
388.0542,686.9374
390.1671,691.4066
392.1038,696.4346
394.0406,703.0804
396.1534,711.8788
398.0901,724.7702
400.0269,751.3947
402.1397,807.7888
404.0764,836.8415
406.0132,851.7593
408.126,860.5579
410.0628,866.3069
412.1756,871.0192
414.1123,874.4818
416.0491,877.5242
418.1619,880.1465
420.0986,882.3654
422.0354,884.4442
424.1482,886.3329
426.085,887.9809
428.0217,889.5715
430.1345,891.0495
432.0713,892.3647
434.008,893.6471
436.1208,894.84
438.0576,895.902
440.1704,897.0023
442.1072,897.945
444.0439,898.8595
446.1567,899.7362
448.0935,900.5201
450.0302,901.2922
452.1431,902.0218
454.0798,902.6898
456.0166,903.3346
458.1294,903.9602
460.0661,904.5327
462.0029,905.0941
464.1157,905.6284
466.0524,906.1252
468.1653,906.6095
470.102,907.0498
472.0388,907.4908
474.1516,907.9099
476.0883,908.2932
478.0251,908.6767
480.1379,909.0432
482.0746,909.3788
484.0114,909.7163
486.1242,910.038
488.061,910.3349
490.1738,910.6448
492.1105,910.9187
494.0473,911.1931
496.1601,911.4579
498.0968,911.702
500.0,911.9454

File: BUW-FZJ_A_Gasification_q50_Mass_R4.csv
Time,Mass
[s],[g]
0.0,25.3526
2.1128,25.3526
4.0496,25.3526
6.1624,25.3525
8.0991,25.3522
10.0359,25.3515
12.1487,25.35
14.0855,25.3477
16.0222,25.3442
18.135,25.3393
20.0718,25.3335
22.0085,25.3261
24.1213,25.3173
26.0581,25.3072
28.1709,25.2936
30.1077,25.278
32.0444,25.2573
34.1572,25.2312
36.094,25.2002
38.0307,25.1609
40.1435,25.1141
42.0803,25.0623
44.017,25.001
46.1299,24.9327
48.0666,24.8612
50.0034,24.7807
52.1162,24.6947
54.0529,24.6037
56.1657,24.5082
58.1025,24.413
60.0392,24.3099
62.1521,24.2033
64.0888,24.0985
66.0256,23.9862
68.1384,23.8713
70.0751,23.7591
72.0119,23.6398
74.1247,23.5184
76.0614,23.4005
78.1743,23.2702
80.111,23.1492
82.0478,23.0213
84.1606,22.892
86.0973,22.7672
88.0341,22.6355
90.1469,22.5028
92.0837,22.3748
94.0204,22.2402
96.1332,22.1046
98.07,21.9742
100.0067,21.8371
102.1195,21.6993
104.0563,21.5607
106.1691,21.4215
108.1059,21.2877
110.0426,21.1472
112.1554,21.0061
114.0922,20.8707
116.0289,20.7285
118.1417,20.5858
120.0785,20.4489
122.0152,20.3052
124.1281,20.161
126.0648,20.0226
128.0016,19.8774
130.1144,19.7318
132.0511,19.5857
134.1639,19.4391
136.1007,19.2984
138.0374,19.1509
140.1503,19.0029
142.087,18.8609
144.0238,18.712
146.1366,18.5625
148.0733,18.4191
150.0101,18.2687
152.1229,18.1178
154.0596,17.9729
156.1725,17.8144
158.1092,17.6685
160.046,17.5155
162.1588,17.3619
164.0955,17.2144
166.0323,17.0597
168.1451,16.9044
170.0818,16.7553
172.0186,16.5988
174.1314,16.4416
176.0682,16.2907
178.0049,16.1322
180.1177,15.9731
182.0545,15.8132
184.1673,15.6526
186.104,15.4984
188.0408,15.3364
190.1536,15.1736
192.0904,15.0171
194.0271,14.8528
196.1399,14.6876
198.0767,14.5288
200.0134,14.3619
202.1263,14.1941
204.063,14.0327
206.1758,13.8557
208.1126,13.6926
210.0493,13.5211
212.1621,13.3487
214.0989,13.1828
216.0356,13.0083
218.1485,12.8329
220.0852,12.6639
222.022,12.4862
224.1348,12.3075
226.0715,12.1355
228.0083,11.9545
230.1211,11.7724
232.0578,11.5971
234.1707,11.4045
236.1074,11.2268
238.0442,11.0398
240.157,10.8514
242.0937,10.6699
244.0305,10.4788
246.1433,10.2861
248.08,10.1004
250.0168,9.9047
252.1296,9.7074
254.0664,9.5169
256.0031,9.3161
258.1159,9.1133
260.0527,8.9085
262.1655,8.7015
264.1023,8.5015
266.039,8.2899
268.1518,8.0758
270.0886,7.8686
272.0253,7.6492
274.1381,7.427
276.0749,7.2115
278.0116,6.9833
280.1245,6.7519
282.0612,6.5276
284.174,6.2794
286.1108,6.0489
288.0475,5.8047
290.1603,5.5573
292.0971,5.3179
294.0338,5.0647
296.1467,4.8085
298.0834,4.5609
300.0202,4.2995
302.133,4.0358
304.0697,3.7816
306.0065,3.514
308.1193,3.2448
310.056,2.9744
312.1689,2.703
314.1056,2.443
316.0424,2.171
318.1552,1.8997
320.0919,1.6414
322.0287,1.3744
324.1415,1.111
326.0783,0.8645
328.015,0.6142
330.1278,0.3766
332.0646,0.1718
334.0013,0.0209
336.1141,0.0
338.0509,0.0
340.1637,0.0
342.1005,0.0
344.0372,0.0
346.15,0.0
348.0868,0.0
350.0235,0.0
352.1363,0.0
354.0731,0.0
356.0098,0.0
358.1226,0.0
360.0594,0.0
362.1722,0.0
364.109,0.0
366.0457,0.0
368.1585,0.0
370.0953,0.0
372.032,0.0
374.1449,0.0
376.0816,0.0
378.0184,0.0
380.1312,0.0
382.0679,0.0
384.0047,0.0
386.1175,0.0
388.0542,0.0
390.1671,0.0
392.1038,0.0
394.0406,0.0
396.1534,0.0
398.0901,0.0
400.0269,0.0
402.1397,0.0
404.0764,0.0
406.0132,0.0
408.126,0.0
410.0628,0.0
412.1756,0.0
414.1123,0.0
416.0491,0.0
418.1619,0.0
420.0986,0.0
422.0354,0.0
424.1482,0.0
426.085,0.0
428.0217,0.0
430.1345,0.0
432.0713,0.0
434.008,0.0
436.1208,0.0
438.0576,0.0
440.1704,0.0
442.1072,0.0
444.0439,0.0
446.1567,0.0
448.0935,0.0
450.0302,0.0
452.1431,0.0
454.0798,0.0
456.0166,0.0
458.1294,0.0
460.0661,0.0
462.0029,0.0
464.1157,0.0
466.0524,0.0
468.1653,0.0
470.102,0.0
472.0388,0.0
474.1516,0.0
476.0883,0.0
478.0251,0.0
480.1379,0.0
482.0746,0.0
484.0114,0.0
486.1242,0.0
488.061,0.0
490.1738,0.0
492.1105,0.0
494.0473,0.0
496.1601,0.0
498.0968,0.0
500.0,0.0

File: BUW-FZJ_A_Gasification_q50_MLR_R3.csv
Time,MLR
[s],[g/m2/s]
0.0,0.0
2.1128,0.0004
4.0496,0.0048
6.1624,0.0215
8.0991,0.0586
10.0359,0.1287
12.1487,0.2361
14.0855,0.3702
16.0222,0.5319
18.135,0.7004
20.0718,0.8594
22.0085,1.0292
24.1213,1.227
26.0581,1.476
28.1709,1.8536
30.1077,2.3234
32.0444,2.952
34.1572,3.7149
36.094,4.5458
38.0307,5.4842
40.1435,6.453
42.0803,7.3727
44.017,8.2987
46.1299,9.169
48.0666,9.9407
50.0034,10.6809
52.1162,11.3541
54.0529,11.9652
56.1657,12.5188
58.1025,13.0001
60.0392,13.4583
62.1521,13.8749
64.0888,14.2391
66.0256,14.5877
68.1384,14.9066
70.0751,15.187
72.0119,15.4568
74.1247,15.7048
76.0614,15.9238
78.1743,16.1442
80.111,16.3307
82.0478,16.5112
84.1606,16.6781
86.0973,16.8262
88.0341,16.9701
90.1469,17.1033
92.0837,17.2218
94.0204,17.3371
96.1332,17.4444
98.07,17.54
100.0067,17.6333
102.1195,17.7203
104.0563,17.8015
106.1691,17.8867
108.1059,17.9572
110.0426,18.0281
112.1554,18.0987
114.0922,18.1612
116.0289,18.2255
118.1417,18.287
120.0785,18.3435
122.0152,18.3996
124.1281,18.4551
126.0648,18.5061
128.0016,18.5589
130.1144,18.6115
132.0511,18.6624
134.1639,18.7136
136.1007,18.7615
138.0374,18.8121
140.1503,18.8637
142.087,18.9104
144.0238,18.9598
146.1366,19.0129
148.0733,19.0607
150.0101,19.1104
152.1229,19.1639
154.0596,19.2152
156.1725,19.2694
158.1092,19.3241
160.046,19.3787
162.1588,19.4349
164.0955,19.4902
166.0323,19.5465
168.1451,19.609
170.0818,19.6681
172.0186,19.7324
174.1314,19.7956
176.0682,19.8591
178.0049,19.93
180.1177,20.0001
182.0545,20.071
184.1673,20.143
186.104,20.2122
188.0408,20.2884
190.1536,20.3701
192.0904,20.4477
194.0271,20.5301
196.1399,20.6131
198.0767,20.7001
200.0134,20.7891
202.1263,20.8834
204.063,20.9727
206.1758,21.0753
208.1126,21.1679
210.0493,21.2698
212.1621,21.3758
214.0989,21.4768
216.0356,21.5831
218.1485,21.6973
220.0852,21.8065
222.022,21.9248
224.1348,22.0413
226.0715,22.1582
228.0083,22.2825
230.1211,22.4105
232.0578,22.5466
234.1707,22.6807
236.1074,22.7995
238.0442,22.9328
240.157,23.0711
242.0937,23.2082
244.0305,23.3532
246.1433,23.503
248.08,23.6474
250.0168,23.8051
252.1296,23.9608
254.0664,24.1228
256.0031,24.2938
258.1159,24.4731
260.0527,24.6617
262.1655,24.8498
264.1023,25.0339
266.039,25.2364
268.1518,25.4601
270.0886,25.6769
272.0253,25.9156
274.1381,26.1611
276.0749,26.4154
278.0116,26.6844
280.1245,26.9955
282.0612,27.3056
284.174,27.6398
286.1108,27.9807
288.0475,28.3418
290.1603,28.7166
292.0971,29.0806
294.0338,29.487
296.1467,29.8726
298.0834,30.2585
300.0202,30.6631
302.133,31.0567
304.0697,31.4344
306.0065,31.8103
308.1193,32.1883
310.056,32.5337
312.1689,32.8647
314.1056,33.1498
316.0424,33.4448
318.1552,33.7094
320.0919,33.9361
322.0287,34.1584
324.1415,34.3267
326.0783,34.4463
328.015,34.5187
330.1278,34.483
332.0646,34.4796
334.0013,34.2296
336.1141,33.9295
338.0509,33.523
340.1637,32.9868
342.1005,32.3373
344.0372,30.8897
346.15,28.6672
348.0868,24.785
350.0235,10.2258
352.1363,0.0131
354.0731,0.0
356.0098,0.0
358.1226,0.0
360.0594,0.0
362.1722,0.0
364.109,0.0
366.0457,0.0
368.1585,0.0
370.0953,0.0
372.032,0.0
374.1449,0.0
376.0816,0.0
378.0184,0.0
380.1312,0.0
382.0679,0.0
384.0047,0.0
386.1175,0.0
388.0542,0.0
390.1671,0.0
392.1038,0.0
394.0406,0.0
396.1534,0.0
398.0901,0.0
400.0269,0.0
402.1397,0.0
404.0764,0.0
406.0132,0.0
408.126,0.0
410.0628,0.0
412.1756,0.0
414.1123,0.0
416.0491,0.0
418.1619,0.0
420.0986,0.0
422.0354,0.0
424.1482,0.0
426.085,0.0
428.0217,0.0
430.1345,0.0
432.0713,0.0
434.008,0.0
436.1208,0.0
438.0576,0.0
440.1704,0.0
442.1072,0.0
444.0439,0.0
446.1567,0.0
448.0935,0.0
450.0302,0.0
452.1431,0.0
454.0798,0.0
456.0166,0.0
458.1294,0.0
460.0661,0.0
462.0029,0.0
464.1157,0.0
466.0524,0.0
468.1653,0.0
470.102,0.0
472.0388,0.0
474.1516,0.0
476.0883,0.0
478.0251,0.0
480.1379,0.0
482.0746,0.0
484.0114,0.0
486.1242,0.0
488.061,0.0
490.1738,0.0
492.1105,0.0
494.0473,0.0
496.1601,0.0
498.0968,0.0
500.0,0.0