Folder: matl-db/PMMA/Validation_Results/BUW-FZJ (part 8)

File: BUW-FZJ_C_Gasification_q50_MLR_R5.csv
Time,MLR_CH4,MLR_CO2,MLR_Combined
[s],[g/m2/s],[g/m2/s],[g/m2/s]
0.0,0.0,0.0,0.0
2.1128,0.0007,0.003,0.0037
4.0496,0.034,0.0314,0.0654
6.1624,0.2585,0.1044,0.3629
8.0991,0.8786,0.2222,1.1008
10.0359,1.5501,0.3717,1.9219
12.1487,1.3787,0.4946,1.8733
14.0855,1.2771,0.5536,1.8307
16.0222,1.3886,0.5852,1.9738
18.135,1.6048,0.6355,2.2403
20.0718,1.8867,0.7223,2.609
22.0085,2.2459,0.8565,3.1024
24.1213,2.6623,1.0344,3.6967
26.0581,3.0984,1.2397,4.3381
28.1709,3.5992,1.4957,5.0949
30.1077,4.0665,1.7532,5.8198
32.0444,4.5505,2.0381,6.5886
34.1572,5.0205,2.3353,7.3557
36.094,5.4483,2.6229,8.0712
38.0307,5.8673,2.9229,8.7902
40.1435,6.2527,3.2171,9.4698
42.0803,6.5905,3.492,10.0824
44.017,6.9107,3.7706,10.6813
46.1299,7.1975,4.0375,11.2351
48.0666,7.441,4.2807,11.7217
50.0034,7.6718,4.5271,12.1989
52.1162,7.8748,4.7609,12.6357
54.0529,8.0527,4.982,13.0348
56.1657,8.2072,5.1914,13.3986
58.1025,8.3411,5.3854,13.7264
60.0392,8.4656,5.5805,14.046
62.1521,8.5698,5.7609,14.3307
64.0888,8.6615,5.9322,14.5937
66.0256,8.7422,6.0966,14.8388
68.1384,8.8142,6.259,15.0732
70.0751,8.8745,6.405,15.2795
72.0119,8.9271,6.5516,15.4788
74.1247,8.9745,6.6911,15.6656
76.0614,9.0123,6.8192,15.8315
78.1743,9.0496,6.9546,16.0042
80.111,9.0768,7.0708,16.1476
82.0478,9.1045,7.1905,16.295
84.1606,9.1264,7.3043,16.4307
86.0973,9.1458,7.4094,16.5552
88.0341,9.161,7.5138,16.6748
90.1469,9.1771,7.6163,16.7934
92.0837,9.186,7.7065,16.8925
94.0204,9.1995,7.8023,17.0018
96.1332,9.2051,7.8881,17.0932
98.07,9.2165,7.9757,17.1921
100.0067,9.2205,8.0557,17.2762
102.1195,9.2293,8.1388,17.3681
104.0563,9.2336,8.2156,17.4491
106.1691,9.2398,8.2894,17.5292
108.1059,9.2446,8.3589,17.6035
110.0426,9.2484,8.4285,17.6769
112.1554,9.2517,8.4932,17.7449
114.0922,9.2567,8.5555,17.8122
116.0289,9.2598,8.619,17.8787
118.1417,9.2656,8.6785,17.9441
120.0785,9.2687,8.7341,18.0028
122.0152,9.2736,8.7911,18.0647
124.1281,9.2773,8.8424,18.1197
126.0648,9.2828,8.8946,18.1774
128.0016,9.2857,8.9408,18.2265
130.1144,9.292,8.9925,18.2846
132.0511,9.2963,9.0375,18.3339
134.1639,9.3021,9.0826,18.3848
136.1007,9.306,9.1241,18.4301
138.0374,9.3116,9.1641,18.4758
140.1503,9.3174,9.2056,18.523
142.087,9.3239,9.2434,18.5673
144.0238,9.3295,9.2789,18.6084
146.1366,9.3353,9.3155,18.6508
148.0733,9.3412,9.3475,18.6886
150.0101,9.3484,9.3815,18.7299
152.1229,9.3544,9.4134,18.7678
154.0596,9.362,9.4444,18.8064
156.1725,9.3685,9.4741,18.8426
158.1092,9.3757,9.5024,18.878
160.046,9.3829,9.5308,18.9137
162.1588,9.3896,9.5571,18.9467
164.0955,9.3969,9.5828,18.9797
166.0323,9.4043,9.606,19.0104
168.1451,9.4117,9.6301,19.0418
170.0818,9.4193,9.6517,19.071
172.0186,9.4271,9.6744,19.1016
174.1314,9.4354,9.6958,19.1312
176.0682,9.4426,9.7148,19.1574
178.0049,9.4506,9.7355,19.1861
180.1177,9.4582,9.7545,19.2127
182.0545,9.4662,9.7731,19.2393
184.1673,9.4743,9.7913,19.2656
186.104,9.4818,9.8072,19.289
188.0408,9.4898,9.8233,19.3131
190.1536,9.498,9.84,19.338
192.0904,9.5059,9.8545,19.3604
194.0271,9.5148,9.8691,19.3839
196.1399,9.523,9.8831,19.4061
198.0767,9.5314,9.8961,19.4275
200.0134,9.5403,9.9096,19.4499
202.1263,9.5486,9.9224,19.471
204.063,9.5566,9.9341,19.4906
206.1758,9.5653,9.9464,19.5117
208.1126,9.574,9.9583,19.5322
210.0493,9.583,9.9694,19.5525
212.1621,9.5911,9.9775,19.5686
214.0989,9.5998,9.9916,19.5914
216.0356,9.6111,10.012,19.6231
218.1485,9.6175,10.0131,19.6306
220.0852,9.6265,10.0123,19.6388
222.022,9.6383,10.0314,19.6696
224.1348,9.647,10.0408,19.6877
226.0715,9.6564,10.0532,19.7097
228.0083,9.6653,10.0604,19.7257
230.1211,9.6744,10.0689,19.7433
232.0578,9.6853,10.0783,19.7636
234.1707,9.6949,10.0858,19.7807
236.1074,9.7044,10.0946,19.7991
238.0442,9.7157,10.1044,19.8201
240.157,9.726,10.1129,19.8388
242.0937,9.7351,10.1208,19.856
244.0305,9.7457,10.1302,19.8759
246.1433,9.7563,10.1397,19.896
248.08,9.7663,10.1489,19.9151
250.0168,9.7768,10.1587,19.9355
252.1296,9.787,10.169,19.956
254.0664,9.7964,10.1792,19.9757
256.0031,9.8063,10.1904,19.9967
258.1159,9.8156,10.202,20.0176
260.0527,9.8242,10.2138,20.038
262.1655,9.832,10.2264,20.0585
264.1023,9.8392,10.2393,20.0785
266.039,9.8461,10.2546,20.1007
268.1518,9.8521,10.2706,20.1227
270.0886,9.8568,10.2869,20.1437
272.0253,9.8606,10.3058,20.1663
274.1381,9.8631,10.3257,20.1889
276.0749,9.8647,10.3478,20.2125
278.0116,9.867,10.3732,20.2402
280.1245,9.8706,10.4017,20.2723
282.0612,9.8764,10.4321,20.3084
284.174,9.8877,10.4688,20.3565
286.1108,9.9061,10.5092,20.4153
288.0475,9.9392,10.5607,20.4999
290.1603,9.9903,10.6204,20.6107
292.0971,10.0555,10.6855,20.741
294.0338,10.1436,10.762,20.9056
296.1467,10.2504,10.8461,21.0965
298.0834,10.3715,10.9366,21.308
300.0202,10.5143,11.0426,21.5569
302.133,10.6777,11.1634,21.8411
304.0697,10.8517,11.2966,22.1483
306.0065,11.0565,11.4559,22.5124
308.1193,11.2929,11.6432,22.9361
310.056,11.5679,11.8675,23.4354
312.1689,11.8588,12.0912,23.95
314.1056,12.0972,12.2844,24.3816
316.0424,12.3527,12.5271,24.8798
318.1552,12.5999,12.7904,25.3903
320.0919,12.8127,13.0364,25.849
322.0287,13.0026,13.278,26.2806
324.1415,13.1592,13.5138,26.673
326.0783,13.2765,13.7273,27.0037
328.015,13.3636,13.928,27.2917
330.1278,13.4162,14.1218,27.538
332.0646,13.4391,14.2938,27.7328
334.0013,13.4309,14.4571,27.8879
336.1141,13.3975,14.618,28.0155
338.0509,13.3406,14.771,28.1116
340.1637,13.2544,14.9116,28.1661
342.1005,13.1578,15.0538,28.2115
344.0372,13.0326,15.1862,28.2187
346.15,12.8876,15.3293,28.2169
348.0868,12.7345,15.4665,28.201
350.0235,12.5488,15.5958,28.1446
352.1363,12.3517,15.7481,28.0997
354.0731,12.1411,15.881,28.0221
356.0098,11.8987,16.0226,27.9212
358.1226,11.6442,16.1766,27.8208
360.0594,11.3728,16.3051,27.6779
362.1722,11.0628,16.471,27.5338
364.109,10.7589,16.6181,27.377
366.0457,10.4079,16.7409,27.1487
368.1585,10.0496,16.9051,26.9547
370.0953,9.688,17.0533,26.7412
372.032,9.2709,17.1581,26.429
374.1449,8.8452,17.3006,26.1458
376.0816,8.4244,17.4333,25.8577
378.0184,7.9476,17.5104,25.458
380.1312,7.4425,17.5515,24.994
382.0679,6.9673,17.6501,24.6174
384.0047,6.4502,17.7098,24.16
386.1175,5.8936,17.6434,23.537
388.0542,5.2969,17.3993,22.6962
390.1671,4.6904,17.0446,21.7349
392.1038,4.087,16.4471,20.5341
394.0406,3.4218,15.267,18.6888
396.1534,2.6633,12.389,15.0522
398.0901,1.3799,3.3524,4.7323
400.0269,0.0,0.0,0.0
402.1397,0.0,0.0,0.0
404.0764,0.0,0.0,0.0
406.0132,0.0,0.0,0.0
408.126,0.0,0.0,0.0
410.0628,0.0,0.0,0.0
412.1756,0.0,0.0,0.0
414.1123,0.0,0.0,0.0
416.0491,0.0,0.0,0.0
418.1619,0.0,0.0,0.0
420.0986,0.0,0.0,0.0
422.0354,0.0,0.0,0.0
424.1482,0.0,0.0,0.0
426.085,0.0,0.0,0.0
428.0217,0.0,0.0,0.0
430.1345,0.0,0.0,0.0
432.0713,0.0,0.0,0.0
434.008,0.0,0.0,0.0
436.1208,0.0,0.0,0.0
438.0576,0.0,0.0,0.0
440.1704,0.0,0.0,0.0
442.1072,0.0,0.0,0.0
444.0439,0.0,0.0,0.0
446.1567,0.0,0.0,0.0
448.0935,0.0,0.0,0.0
450.0302,0.0,0.0,0.0
452.1431,0.0,0.0,0.0
454.0798,0.0,0.0,0.0
456.0166,0.0,0.0,0.0
458.1294,0.0,0.0,0.0
460.0661,0.0,0.0,0.0
462.0029,0.0,0.0,0.0
464.1157,0.0,0.0,0.0
466.0524,0.0,0.0,0.0
468.1653,0.0,0.0,0.0
470.102,0.0,0.0,0.0
472.0388,0.0,0.0,0.0
474.1516,0.0,0.0,0.0
476.0883,0.0,0.0,0.0
478.0251,0.0,0.0,0.0
480.1379,0.0,0.0,0.0
482.0746,0.0,0.0,0.0
484.0114,0.0,0.0,0.0
486.1242,0.0,0.0,0.0
488.061,0.0,0.0,0.0
490.1738,0.0,0.0,0.0
492.1105,0.0,0.0,0.0
494.0473,0.0,0.0,0.0
496.1601,0.0,0.0,0.0
498.0968,0.0,0.0,0.0
500.0,0.0,0.0,0.0

File: BUW-FZJ_C_Gasification_q50_Temp_R1.csv
Time,T_back_1
[s],[K]
0.0,290.65
2.1128,290.6499
4.0496,290.6498
6.1624,290.6502
8.0991,290.6587
10.0359,290.708
12.1487,290.8572
14.0855,291.1469
16.0222,291.6424
18.135,292.3552
20.0718,293.238
22.0085,294.3594
24.1213,295.6667
26.0581,297.0692
28.1709,298.7468
30.1077,300.4005
32.0444,302.2294
34.1572,304.1452
36.094,306.0447
38.0307,308.0883
40.1435,310.1802
42.0803,312.2162
44.017,314.3724
46.1299,316.5481
48.0666,318.6396
50.0034,320.8288
52.1162,323.0114
54.0529,325.1803
56.1657,327.3436
58.1025,329.4093
60.0392,331.5635
62.1521,333.7101
64.0888,335.7549
66.0256,337.882
68.1384,339.9968
70.0751,342.0066
72.0119,344.0932
74.1247,346.1626
76.0614,348.1256
78.1743,350.2469
80.111,352.1723
82.0478,354.1646
84.1606,356.1334
86.0973,357.9953
88.0341,359.9171
90.1469,361.8138
92.0837,363.6023
94.0204,365.4445
96.1332,367.2565
98.07,368.9595
100.0067,370.7077
102.1195,372.4196
104.0563,374.0915
106.1691,375.7259
108.1059,377.2618
110.0426,378.8457
112.1554,380.41
114.0922,381.8895
116.0289,383.4237
118.1417,384.9458
120.0785,386.3927
122.0152,387.8971
124.1281,389.3963
126.0648,390.8247
128.0016,392.3159
130.1144,393.8045
132.0511,395.294
134.1639,396.7832
136.1007,398.2108
138.0374,399.7058
140.1503,401.2071
142.087,402.6494
144.0238,404.1632
146.1366,405.6883
148.0733,407.1569
150.0101,408.7043
152.1229,410.2659
154.0596,411.7735
156.1725,413.4372
158.1092,414.9832
160.046,416.6208
162.1588,418.2825
164.0955,419.8999
166.0323,421.6215
168.1451,423.381
170.0818,425.0969
172.0186,426.9182
174.1314,428.7668
176.0682,430.5612
178.0049,432.4655
180.1177,434.4009
182.0545,436.3686
184.1673,438.3706
186.104,440.3202
188.0408,442.3966
190.1536,444.514
192.0904,446.5806
194.0271,448.7871
196.1399,451.0452
198.0767,453.2553
200.0134,455.6248
202.1263,458.058
204.063,460.4505
206.1758,463.1403
208.1126,465.6875
210.0493,468.444
212.1621,471.3106
214.0989,474.1709
216.0356,477.3032
218.1485,480.5811
220.0852,483.8548
222.022,487.428
224.1348,491.1672
226.0715,494.9062
228.0083,498.9981
230.1211,503.2918
232.0578,507.598
234.1707,512.5337
236.1074,517.2925
238.0442,522.5213
240.157,528.0333
242.0937,533.5905
244.0305,539.7553
246.1433,546.3429
248.08,553.1079
250.0168,560.8713
252.1296,569.8463
254.0664,579.3828
256.0031,587.1694
258.1159,593.4877
260.0527,598.8633
262.1655,603.5212
264.1023,607.4339
266.039,611.087
268.1518,614.3664
270.0886,617.2112
272.0253,619.9398
274.1381,622.4545
276.0749,624.6986
278.0116,626.9161
280.1245,629.0209
282.0612,630.9502
284.174,633.0005
286.1108,634.823
288.0475,636.7044
290.1603,638.5604
292.0971,640.3277
294.0338,642.1744
296.1467,644.0268
298.0834,645.8055
300.0202,647.6815
302.133,649.5862
304.0697,651.4315
306.0065,653.3973
308.1193,655.3992
310.056,657.4577
312.1689,659.5672
314.1056,661.6374
316.0424,663.8978
318.1552,666.2394
320.0919,668.5641
322.0287,671.1531
324.1415,673.91
326.0783,676.6897
328.015,679.8144
330.1278,683.3725
332.0646,687.1023
334.0013,691.5586
336.1141,696.7507
338.0509,703.2941
340.1637,712.3651
342.1005,725.9448
344.0372,756.4078
346.15,815.0845
348.0868,840.9582
350.0235,854.1764
352.1363,862.0855
354.0731,867.3768
356.0098,871.6309
358.1226,875.077
360.0594,877.8733
362.1722,880.5213
364.109,882.672
366.0457,884.6996
368.1585,886.5388
370.0953,888.1548
372.032,889.7213
374.1449,891.1746
376.0816,892.467
378.0184,893.728
380.1312,894.905
382.0679,895.9512
384.0047,896.9878
386.1175,897.9657
388.0542,898.8738
390.1671,899.7325
392.1038,900.5145
394.0406,901.2736
396.1534,902.0006
398.0901,902.6608
400.0269,903.2987
402.1397,903.9152
404.0764,904.4885
406.0132,905.0454
408.126,905.5759
410.0628,906.0468
412.1756,906.549
414.1123,906.9866
416.0491,907.4253
418.1619,907.8419
420.0986,908.2234
422.0354,908.6052
424.1482,908.97
426.085,909.3043
428.0217,909.6403
430.1345,909.9607
432.0713,910.2566
434.008,910.5526
436.1208,910.8384
438.0576,911.1008
440.1704,911.3758
442.1072,911.6198
444.0439,911.8649
446.1567,912.101
448.0935,912.3196
450.0302,912.5413
452.1431,912.7541
454.0798,912.9589
456.0166,913.1743
458.1294,913.3684
460.0661,913.5472
462.0029,913.7308
464.1157,913.8847
466.0524,914.0561
468.1653,914.2216
470.102,914.3985
472.0388,914.5555
474.1516,914.7082
476.0883,914.8472
478.0251,914.9748
480.1379,915.1164
482.0746,915.2596
484.0114,915.4049
486.1242,915.5371
488.061,915.6604
490.1738,915.7687
492.1105,915.8874
494.0473,916.0222
496.1601,916.1479
498.0968,916.2591
500.0,916.3614

File: BUW-FZJ_C_Gasification_q50_Temp_R2.csv
Time,T_back_1
[s],[K]
0.0,291.2
2.1128,291.1999
4.0496,291.1998
6.1624,291.2
8.0991,291.2048
10.0359,291.2367
12.1487,291.3413
14.0855,291.5561
16.0222,291.9396
18.135,292.5102
20.0718,293.2353
22.0085,294.1758
24.1213,295.2919
26.0581,296.5067
28.1709,297.9777
30.1077,299.4432
32.0444,301.0783
34.1572,302.8049
36.094,304.5286
38.0307,306.3945
40.1435,308.3154
42.0803,310.1947
44.017,312.1946
46.1299,314.2226
48.0666,316.1813
50.0034,318.2416
52.1162,320.3075
54.0529,322.3712
56.1657,324.4236
58.1025,326.3809
60.0392,328.4245
62.1521,330.4649
64.0888,332.4114
66.0256,334.44
68.1384,336.4602
70.0751,338.3839
72.0119,340.3834
74.1247,342.3714
76.0614,344.26
78.1743,346.3052
80.111,348.1647
82.0478,350.0921
84.1606,352.0019
86.0973,353.8115
88.0341,355.6835
90.1469,357.5347
92.0837,359.2856
94.0204,361.0943
96.1332,362.879
98.07,364.5632
100.0067,366.2989
102.1195,368.0074
104.0563,369.6869
106.1691,371.3346
108.1059,372.8808
110.0426,374.4613
112.1554,376.0094
114.0922,377.4679
116.0289,378.973
118.1417,380.4614
120.0785,381.871
122.0152,383.3333
124.1281,384.7856
126.0648,386.1665
128.0016,387.6031
130.1144,389.0344
132.0511,390.4623
134.1639,391.8868
136.1007,393.2486
138.0374,394.6717
140.1503,396.0966
142.087,397.4616
144.0238,398.8916
146.1366,400.3273
148.0733,401.7058
150.0101,403.154
152.1229,404.6097
154.0596,406.0122
156.1725,407.5544
158.1092,408.9796
160.046,410.4838
162.1588,412.0037
164.0955,413.4741
166.0323,415.0316
168.1451,416.6101
170.0818,418.1434
172.0186,419.7731
174.1314,421.4327
176.0682,423.0544
178.0049,424.7841
180.1177,426.5421
182.0545,428.3261
184.1673,430.1381
186.104,431.8976
188.0408,433.7658
190.1536,435.6656
192.0904,437.5141
194.0271,439.4811
196.1399,441.4848
198.0767,443.4389
200.0134,445.5223
202.1263,447.6507
204.063,449.7311
206.1758,452.0543
208.1126,454.2373
210.0493,456.5773
212.1621,458.9824
214.0989,461.3485
216.0356,463.8987
218.1485,466.5359
220.0852,469.1476
222.022,471.9866
224.1348,474.9569
226.0715,477.9304
228.0083,481.1774
230.1211,484.5704
232.0578,487.9605
234.1707,491.8266
236.1074,495.5369
238.0442,499.595
240.157,503.8525
242.0937,508.1218
244.0305,512.8034
246.1433,517.7271
248.08,522.6752
250.0168,528.1125
252.1296,533.8607
254.0664,539.695
256.0031,546.1786
258.1159,553.1592
260.0527,560.826
262.1655,569.6798
264.1023,579.1315
266.039,586.8957
268.1518,593.1672
270.0886,598.3466
272.0253,603.0322
274.1381,607.116
276.0749,610.6109
278.0116,613.9071
280.1245,616.8847
282.0612,619.5021
284.174,622.136
286.1108,624.3823
288.0475,626.5956
290.1603,628.7018
292.0971,630.6338
294.0338,632.5891
296.1467,634.4971
298.0834,636.2918
300.0202,638.1449
302.133,639.9906
304.0697,641.742
306.0065,643.5907
308.1193,645.4405
310.056,647.3123
312.1689,649.2104
314.1056,651.036
316.0424,652.9909
318.1552,654.9889
320.0919,656.933
322.0287,659.0307
324.1415,661.1844
326.0783,663.305
328.015,665.6352
330.1278,668.0585
332.0646,670.4663
334.0013,673.1462
336.1141,676.0572
338.0509,679.1593
340.1637,682.527
342.1005,686.1731
344.0372,690.5262
346.15,695.6304
348.0868,701.6304
350.0235,709.9484
352.1363,722.5374
354.0731,745.7057
356.0098,802.5035
358.1226,836.4263
360.0594,851.2084
362.1722,860.5178
364.109,866.2376
366.0457,870.751
368.1585,874.3658
370.0953,877.2728
372.032,879.9031
374.1449,882.219
376.0816,884.2122
378.0184,886.1002
380.1312,887.8316
382.0679,889.3587
384.0047,890.841
386.1175,892.214
388.0542,893.4975
390.1671,894.6952
392.1038,895.7667
394.0406,896.8129
396.1534,897.7952
398.0901,898.6899
400.0269,899.5506
402.1397,900.3861
404.0764,901.1173
406.0132,901.865
408.126,902.5502
410.0628,903.1803
412.1756,903.8429
414.1123,904.4094
416.0491,904.9609
418.1619,905.4963
420.0986,905.9933
422.0354,906.485
424.1482,906.9477
426.085,907.3722
428.0217,907.7932
430.1345,908.1971
432.0713,908.5658
434.008,908.9351
436.1208,909.2887
438.0576,909.6123
440.1704,909.9508
442.1072,910.2499
444.0439,910.5481
446.1567,910.8366
448.0935,911.1022
450.0302,911.3682
452.1431,911.6257
454.0798,911.8632
456.0166,912.1022
458.1294,912.3331
460.0661,912.5474
462.0029,912.7635
464.1157,912.9716
466.0524,913.1518
468.1653,913.3482
470.102,913.5273
472.0388,913.7108
474.1516,913.9107
476.0883,914.0745
478.0251,914.2417
480.1379,914.3893
482.0746,914.5353
484.0114,914.6886
486.1242,914.8376
488.061,914.9995
490.1738,915.1476
492.1105,915.2801
494.0473,915.3947
496.1601,915.5282
498.0968,915.6506
500.0,915.7974

File: BUW-FZJ_C_Gasification_q50_Temp_R3.csv
Time,T_back_1
[s],[K]
0.0,291.2
2.1128,291.1999
4.0496,291.1998
6.1624,291.1997
8.0991,291.2002
10.0359,291.2064
12.1487,291.2338
14.0855,291.3034
16.0222,291.4493
18.135,291.6959
20.0718,292.0415
22.0085,292.5267
24.1213,293.1428
26.0581,293.8509
28.1709,294.75
30.1077,295.6825
32.0444,296.7589
34.1572,297.9306
36.094,299.1311
38.0307,300.461
40.1435,301.8597
42.0803,303.254
44.017,304.7638
46.1299,306.3206
48.0666,307.8474
50.0034,309.4774
52.1162,311.1368
54.0529,312.82
56.1657,314.5225
58.1025,316.1644
60.0392,317.8906
62.1521,319.6223
64.0888,321.2797
66.0256,323.0081
68.1384,324.728
70.0751,326.3705
72.0119,328.0864
74.1247,329.8003
76.0614,331.4366
78.1743,333.2174
80.111,334.8454
82.0478,336.5417
84.1606,338.231
86.0973,339.8405
88.0341,341.5151
90.1469,343.181
92.0837,344.7655
94.0204,346.4124
96.1332,348.0485
98.07,349.603
100.0067,351.2165
102.1195,352.8182
104.0563,354.4069
106.1691,355.9819
108.1059,357.4759
110.0426,359.0233
112.1554,360.5561
114.0922,362.0074
116.0289,363.509
118.1417,364.9939
120.0785,366.3982
122.0152,367.8481
124.1281,369.2784
126.0648,370.6274
128.0016,372.0162
130.1144,373.3807
132.0511,374.721
134.1639,376.0401
136.1007,377.2873
138.0374,378.5782
140.1503,379.8568
142.087,381.0706
144.0238,382.332
146.1366,383.5863
148.0733,384.7815
150.0101,386.0264
152.1229,387.2674
154.0596,388.4518
156.1725,389.7421
158.1092,390.9244
160.046,392.161
162.1588,393.3983
164.0955,394.5835
166.0323,395.8248
168.1451,397.0703
170.0818,398.266
172.0186,399.5207
174.1314,400.7812
176.0682,401.9942
178.0049,403.2703
180.1177,404.5544
182.0545,405.8483
184.1673,407.154
186.104,408.4138
188.0408,409.7434
190.1536,411.0888
192.0904,412.3896
194.0271,413.766
196.1399,415.1617
198.0767,416.5155
200.0134,417.9528
202.1263,419.4141
204.063,420.8374
206.1758,422.4212
208.1126,423.9053
210.0493,425.4854
212.1621,427.0902
214.0989,428.649
216.0356,430.304
218.1485,431.9862
220.0852,433.6215
222.022,435.3599
224.1348,437.1298
226.0715,438.8533
228.0083,440.6884
230.1211,442.5598
232.0578,444.3862
234.1707,446.4211
236.1074,448.3276
238.0442,450.3659
240.157,452.4536
242.0937,454.4996
244.0305,456.6937
246.1433,458.9489
248.08,461.1677
250.0168,463.5578
252.1296,466.0269
254.0664,468.4709
256.0031,471.1226
258.1159,473.8902
260.0527,476.7882
262.1655,479.8178
264.1023,482.8407
266.039,486.1362
268.1518,489.5803
270.0886,493.0194
272.0253,496.7762
274.1381,500.7091
276.0749,504.6456
278.0116,508.9557
280.1245,513.4783
282.0612,518.0143
284.174,523.225
286.1108,528.254
288.0475,533.7944
290.1603,539.648
292.0971,545.6001
294.0338,552.2724
296.1467,559.5574
298.0834,567.4136
300.0202,577.0124
302.133,585.0236
304.0697,591.1777
306.0065,596.7
308.1193,601.4273
310.056,605.5753
312.1689,609.2696
314.1056,612.4542
316.0424,615.4837
318.1552,618.2506
320.0919,620.6878
322.0287,623.0694
324.1415,625.3056
326.0783,627.3271
328.015,629.3661
330.1278,631.3202
332.0646,633.1462
334.0013,635.0147
336.1141,636.8584
338.0509,638.683
340.1637,640.504
342.1005,642.2454
344.0372,644.0766
346.15,645.9142
348.0868,647.6923
350.0235,649.5812
352.1363,651.4884
354.0731,653.3495
356.0098,655.3426
358.1226,657.3743
360.0594,659.3851
362.1722,661.6303
364.109,663.7618
366.0457,666.1102
368.1585,668.5362
370.0953,670.96
372.032,673.691
374.1449,676.6288
376.0816,679.6124
378.0184,682.9977
380.1312,686.9649
382.0679,691.2068
384.0047,696.4769
386.1175,703.0409
388.0542,711.7755
390.1671,725.6145
392.1038,751.8592
394.0406,808.4916
396.1534,838.0754
398.0901,851.971
400.0269,860.7166
402.1397,866.6419
404.0764,870.9157
406.0132,874.5314
408.126,877.5544
410.0628,880.0592
412.1756,882.469
414.1123,884.4518
416.0491,886.3327
418.1619,888.0482
420.0986,889.5679
422.0354,891.0439
424.1482,892.4147
426.085,893.6335
428.0217,894.8263
430.1345,895.9355
432.0713,896.9361
434.008,897.9256
436.1208,898.8443
438.0576,899.6725
440.1704,900.5347
442.1072,901.2626
444.0439,902.0043
446.1567,902.6951
448.0935,903.3101
450.0302,903.9386
452.1431,904.5325
454.0798,905.0684
456.0166,905.6027
458.1294,906.099
460.0661,906.5626
462.0029,907.0234
464.1157,907.4641
466.0524,907.8832
468.1653,908.2834
470.102,908.6498
472.0388,909.0163
474.1516,909.3667
476.0883,909.6892
478.0251,910.011
480.1379,910.321
482.0746,910.6049
484.0114,910.8915
486.1242,911.1661
488.061,911.4193
490.1738,911.6859
492.1105,911.9208
494.0473,912.1575
496.1601,912.3866
498.0968,912.5988
500.0,912.8095

File: BUW-FZJ_Gasification_q50_Temp_Copper.csv
Time,Temperature_3-175mm
0.0,294.05
1.0564,300.7532
2.1128,314.1841
3.1692,323.5683
4.0496,330.6131
5.106,336.7803
6.1624,342.9235
7.0427,348.2123
8.0991,353.2848
9.1555,358.6667
10.0359,363.5074
11.0923,368.2856
12.1487,373.4494
13.029,378.1487
14.0855,382.8208
15.1419,387.8921
16.0222,392.5198
17.0786,397.1277
18.135,402.1334
19.0154,406.703
20.0718,411.2532
21.1282,416.1958
22.0085,420.7063
23.0649,425.1961
24.1213,430.0706
25.0017,434.517
26.0581,438.9409
27.1145,443.742
28.1709,448.5163
29.0512,452.869
30.1077,457.1977
31.1641,461.8934
32.0444,466.1731
33.1008,470.4278
34.1572,475.0417
35.0376,479.2455
36.094,483.4233
37.1504,487.9523
38.0307,492.0773
39.0871,496.1754
40.1435,500.6164
41.0239,504.6599
42.0803,508.6756
43.1367,513.0258
44.017,516.9852
45.0735,520.9159
46.1299,525.1725
47.0102,529.0453
48.0666,532.8887
49.123,537.0491
50.0034,540.8329
51.0598,544.5865
52.1162,548.6482
53.1726,552.6745
54.0529,556.3344
55.1093,559.9632
56.1657,563.8879
57.0461,567.4541
58.1025,570.9887
59.1589,574.8099
60.0392,578.2808
61.0957,581.7197
62.1521,585.436
63.0324,588.8102
64.0888,592.152
65.1452,595.7621
66.0256,599.0386
67.082,602.2824
68.1384,605.7851
69.0187,608.9631
70.0751,612.108
71.1315,615.5027
72.0119,618.5814
73.0683,621.627
74.1247,624.9132
75.005,627.8923
76.0614,630.8382
77.1179,634.0157
78.1743,637.1549
79.0546,639.9992
80.111,642.8104
81.1674,645.8411
82.0478,648.5861
83.1042,651.2981
84.1606,654.2207
85.0409,656.8669
86.0973,659.4803
87.1537,662.2957
88.0341,664.8438
89.0905,667.3595
90.1469,670.0686
91.0272,672.5197
92.0837,674.9387
93.1401,677.5427
94.0204,679.898
95.0768,682.2216
96.1332,684.7221
97.0136,686.983
98.07,689.2127
99.1264,691.6113
100.0,693.7704