Folder: matl-db/PMMA/Validation_Results/BUW-FZJ (part 11)

File: BUW-FZJ_PMMA01_Gasification_q50_Temp_R1.csv
Time,T_back_1
[s],[K]
0.0,290.65
2.112818,290.65
4.04957,290.65
6.16239,290.65
8.09914,290.659
10.0359,290.708
12.1487,290.857
14.0855,291.147
16.0222,291.642
18.135,292.355
20.0718,293.238
22.0085,294.359
24.1213,295.667
26.0581,297.069
28.1709,298.747
30.1077,300.401
32.0444,302.229
34.1572,304.145
36.094,306.045
38.0307,308.088
40.1435,310.18
42.0803,312.216
44.017,314.372
46.12986,316.548
48.06661,318.64
50.00336,320.829
52.1162,323.011
54.0529,325.18
56.1657,327.344
58.1025,329.409
60.0392,331.563
62.1521,333.71
64.0888,335.755
66.0256,337.882
68.1384,339.997
70.0751,342.007
72.0119,344.093
74.1247,346.163
76.0614,348.126
78.1743,350.247
80.111,352.172
82.0478,354.165
84.1606,356.133
86.0973,357.995
88.0341,359.917
90.1469,361.814
92.0837,363.602
94.0204,365.445
96.13322,367.256
98.06997,368.96
100.007,370.708
102.12,372.42
104.056,374.091
106.169,375.726
108.106,377.262
110.043,378.846
112.155,380.41
114.092,381.889
116.029,383.4237
118.142,384.946
120.078,386.393
122.015,387.897
124.128,389.396
126.065,390.825
128.002,392.316
130.114,393.805
132.051,395.294
134.164,396.783
136.101,398.211
138.037,399.706
140.15,401.207
142.087,402.649
144.024,404.163
146.137,405.688
148.073,407.157
150.01,408.704
152.1229,410.266
154.06,411.774
156.172,413.437
158.109,414.983
160.046,416.621
162.159,418.283
164.096,419.9
166.032,421.621
168.1451,423.381
170.082,425.097
172.0186,426.918
174.131,428.767
176.068,430.561
178.005,432.465
180.118,434.401
182.054,436.369
184.1673,438.371
186.104,440.32
188.0408,442.397
190.154,444.514
192.09,446.581
194.027,448.787
196.14,451.045
198.077,453.255
200.013,455.625
202.126,458.058
204.063,460.45
206.176,463.14
208.113,465.688
210.049,468.444
212.162,471.311
214.099,474.171
216.036,477.303
218.148,480.581
220.085,483.855
222.022,487.428
224.135,491.167
226.072,494.906
228.008,498.998
230.1211,503.292
232.058,507.598
234.171,512.534
236.107,517.292
238.044,522.521
240.157,528.033
242.094,533.591
244.03,539.755
246.1433,546.343
248.08,553.108
250.0168,560.871
252.13,569.846
254.066,579.383
256.003,587.169
258.116,593.488
260.053,598.863
262.1655,603.521
264.102,607.434
266.039,611.087
268.152,614.366
270.089,617.211
272.025,619.94
274.138,622.455
276.075,624.699
278.012,626.916
280.124,629.021
282.061,630.9502
284.174,633
286.111,634.823
288.048,636.704
290.16,638.56
292.097,640.328
294.034,642.174
296.147,644.027
298.083,645.806
300.02,647.682
302.133,649.586
304.07,651.432
306.006,653.397
308.1193,655.399
310.056,657.458
312.169,659.567
314.106,661.637
316.042,663.898
318.155,666.239
320.092,668.564
322.029,671.153
324.1415,673.91
326.078,676.69
328.015,679.814
330.128,683.373
332.065,687.102
334.001,691.559
336.114,696.751
338.051,703.294
340.1637,712.365
342.1,725.945
344.0372,756.408
346.15,815.085
348.087,840.958
350.024,854.176
352.136,862.085
354.073,867.377
356.01,871.631
358.123,875.077
360.0594,877.873
362.172,880.521
364.109,882.672
366.046,884.7
368.159,886.539
370.095,888.155
372.032,889.721
374.145,891.175
376.082,892.467
378.018,893.728
380.131,894.905
382.068,895.951
384.005,896.988
386.117,897.966
388.054,898.8738
390.167,899.733
392.104,900.514
394.041,901.274
396.153,902.001
398.09,902.661
400.027,903.299
402.1397,903.915
404.076,904.488
406.0132,905.045
408.126,905.576
410.063,906.047
412.176,906.549
414.112,906.987
416.049,907.425
418.1619,907.8419
420.099,908.223
422.0354,908.6052
424.148,908.97
426.085,909.3043
428.022,909.64
430.135,909.961
432.071,910.257
434.008,910.553
436.121,910.838
438.0576,911.101
440.17,911.3758
442.107,911.62
444.044,911.865
446.157,912.101
448.093,912.32
450.03,912.5413
452.143,912.754
454.08,912.9589
456.017,913.174
458.129,913.368
460.066,913.547
462.003,913.731
464.116,913.885
466.052,914.0561
468.165,914.222
470.102,914.399
472.039,914.556
474.152,914.708
476.088,914.847
478.025,914.975
480.1379,915.116
482.075,915.26
484.0114,915.405
486.124,915.537
488.061,915.66
490.174,915.7687
492.111,915.887
494.047,916.022
496.1601,916.148
498.097,916.259
500.0,916.361

File: BUW-FZJ_PMMA01_Gasification_q50_Temp_R2.csv
Time,T_back_1
[s],[K]
0.0,291.2
2.112818,291.2
4.04957,291.2
6.16239,291.2
8.09914,291.205
10.0359,291.237
12.1487,291.341
14.0855,291.556
16.0222,291.94
18.135,292.51
20.0718,293.235
22.0085,294.176
24.1213,295.292
26.0581,296.507
28.1709,297.978
30.1077,299.443
32.0444,301.078
34.1572,302.805
36.094,304.529
38.0307,306.3945
40.1435,308.315
42.0803,310.195
44.017,312.195
46.12986,314.223
48.06661,316.181
50.00336,318.242
52.1162,320.308
54.0529,322.371
56.1657,324.424
58.1025,326.381
60.0392,328.424
62.1521,330.465
64.0888,332.411
66.0256,334.44
68.1384,336.46
70.0751,338.384
72.0119,340.383
74.1247,342.371
76.0614,344.26
78.1743,346.305
80.111,348.165
82.0478,350.092
84.1606,352.002
86.0973,353.811
88.0341,355.683
90.1469,357.535
92.0837,359.286
94.0204,361.094
96.13322,362.879
98.06997,364.563
100.007,366.299
102.12,368.007
104.056,369.687
106.169,371.335
108.106,372.881
110.043,374.461
112.155,376.009
114.092,377.468
116.029,378.973
118.142,380.461
120.078,381.871
122.015,383.333
124.128,384.786
126.065,386.167
128.002,387.603
130.114,389.0344
132.051,390.462
134.164,391.887
136.101,393.249
138.037,394.672
140.15,396.097
142.087,397.462
144.024,398.892
146.137,400.327
148.073,401.706
150.01,403.154
152.1229,404.6097
154.06,406.012
156.172,407.554
158.109,408.98
160.046,410.484
162.159,412.004
164.096,413.474
166.032,415.032
168.1451,416.61
170.082,418.1434
172.0186,419.773
174.131,421.433
176.068,423.054
178.005,424.784
180.118,426.542
182.054,428.326
184.1673,430.138
186.104,431.898
188.0408,433.7658
190.154,435.666
192.09,437.514
194.027,439.481
196.14,441.485
198.077,443.439
200.013,445.522
202.126,447.651
204.063,449.731
206.176,452.054
208.113,454.237
210.049,456.5773
212.162,458.982
214.099,461.349
216.036,463.899
218.148,466.536
220.085,469.148
222.022,471.987
224.135,474.957
226.072,477.93
228.008,481.177
230.1211,484.57
232.058,487.961
234.171,491.827
236.107,495.537
238.044,499.595
240.157,503.853
242.094,508.122
244.03,512.803
246.1433,517.727
248.08,522.675
250.0168,528.113
252.13,533.861
254.066,539.695
256.003,546.179
258.116,553.159
260.053,560.826
262.1655,569.68
264.102,579.132
266.039,586.896
268.152,593.167
270.089,598.347
272.025,603.032
274.138,607.116
276.075,610.611
278.012,613.907
280.124,616.885
282.061,619.502
284.174,622.136
286.111,624.382
288.048,626.596
290.16,628.702
292.097,630.634
294.034,632.589
296.147,634.497
298.083,636.292
300.02,638.1449
302.133,639.991
304.07,641.742
306.006,643.591
308.1193,645.44
310.056,647.312
312.169,649.21
314.106,651.036
316.042,652.991
318.155,654.989
320.092,656.933
322.029,659.031
324.1415,661.184
326.078,663.305
328.015,665.635
330.128,668.059
332.065,670.466
334.001,673.146
336.114,676.057
338.051,679.159
340.1637,682.527
342.1,686.1731
344.0372,690.526
346.15,695.63
348.087,701.63
350.024,709.9484
352.136,722.537
354.073,745.706
356.01,802.504
358.123,836.426
360.0594,851.208
362.172,860.518
364.109,866.238
366.046,870.751
368.159,874.366
370.095,877.273
372.032,879.903
374.145,882.219
376.082,884.212
378.018,886.1
380.131,887.8316
382.068,889.359
384.005,890.841
386.117,892.214
388.054,893.497
390.167,894.695
392.104,895.7667
394.041,896.813
396.153,897.795
398.09,898.69
400.027,899.551
402.1397,900.386
404.076,901.117
406.0132,901.865
408.126,902.55
410.063,903.18
412.176,903.843
414.112,904.409
416.049,904.961
418.1619,905.496
420.099,905.9933
422.0354,906.485
424.148,906.948
426.085,907.372
428.022,907.793
430.135,908.197
432.071,908.566
434.008,908.935
436.121,909.289
438.0576,909.612
440.17,909.951
442.107,910.25
444.044,910.548
446.157,910.837
448.093,911.102
450.03,911.368
452.143,911.626
454.08,911.863
456.017,912.102
458.129,912.333
460.066,912.547
462.003,912.763
464.116,912.972
466.052,913.152
468.165,913.348
470.102,913.527
472.039,913.711
474.152,913.911
476.088,914.074
478.025,914.242
480.1379,914.389
482.075,914.535
484.0114,914.689
486.124,914.838
488.061,914.999
490.174,915.148
492.111,915.28
494.047,915.395
496.1601,915.528
498.097,915.651
500.0,915.797

File: BUW-FZJ_PMMA01_Gasification_q50_Temp_R3.csv
Time,T_back_1
[s],[K]
0.0,291.2
2.112818,291.2
4.04957,291.2
6.16239,291.2
8.09914,291.2
10.0359,291.206
12.1487,291.234
14.0855,291.303
16.0222,291.449
18.135,291.696
20.0718,292.041
22.0085,292.527
24.1213,293.143
26.0581,293.851
28.1709,294.75
30.1077,295.683
32.0444,296.759
34.1572,297.931
36.094,299.131
38.0307,300.461
40.1435,301.86
42.0803,303.254
44.017,304.764
46.12986,306.321
48.06661,307.847
50.00336,309.477
52.1162,311.137
54.0529,312.82
56.1657,314.522
58.1025,316.164
60.0392,317.891
62.1521,319.622
64.0888,321.2797
66.0256,323.008
68.1384,324.728
70.0751,326.371
72.0119,328.086
74.1247,329.8
76.0614,331.437
78.1743,333.217
80.111,334.845
82.0478,336.542
84.1606,338.231
86.0973,339.841
88.0341,341.515
90.1469,343.181
92.0837,344.766
94.0204,346.412
96.13322,348.048
98.06997,349.603
100.007,351.217
102.12,352.818
104.056,354.407
106.169,355.982
108.106,357.476
110.043,359.023
112.155,360.556
114.092,362.007
116.029,363.509
118.142,364.994
120.078,366.398
122.015,367.848
124.128,369.278
126.065,370.627
128.002,372.016
130.114,373.381
132.051,374.721
134.164,376.04
136.101,377.287
138.037,378.578
140.15,379.857
142.087,381.071
144.024,382.332
146.137,383.586
148.073,384.782
150.01,386.026
152.1229,387.267
154.06,388.452
156.172,389.742
158.109,390.924
160.046,392.161
162.159,393.398
164.096,394.584
166.032,395.825
168.1451,397.07
170.082,398.266
172.0186,399.521
174.131,400.781
176.068,401.994
178.005,403.27
180.118,404.554
182.054,405.848
184.1673,407.154
186.104,408.414
188.0408,409.743
190.154,411.089
192.09,412.39
194.027,413.766
196.14,415.1617
198.077,416.516
200.013,417.953
202.126,419.414
204.063,420.837
206.176,422.421
208.113,423.905
210.049,425.485
212.162,427.0902
214.099,428.649
216.036,430.304
218.148,431.986
220.085,433.621
222.022,435.36
224.135,437.13
226.072,438.853
228.008,440.688
230.1211,442.56
232.058,444.386
234.171,446.421
236.107,448.328
238.044,450.366
240.157,452.454
242.094,454.5
244.03,456.694
246.1433,458.9489
248.08,461.168
250.0168,463.558
252.13,466.027
254.066,468.471
256.003,471.123
258.116,473.89
260.053,476.788
262.1655,479.818
264.102,482.841
266.039,486.136
268.152,489.58
270.089,493.019
272.025,496.776
274.138,500.7091
276.075,504.646
278.012,508.956
280.124,513.478
282.061,518.014
284.174,523.225
286.111,528.254
288.048,533.794
290.16,539.648
292.097,545.6
294.034,552.272
296.147,559.557
298.083,567.414
300.02,577.012
302.133,585.024
304.07,591.178
306.006,596.7
308.1193,601.427
310.056,605.575
312.169,609.27
314.106,612.454
316.042,615.4837
318.155,618.251
320.092,620.688
322.029,623.069
324.1415,625.306
326.078,627.327
328.015,629.366
330.128,631.32
332.065,633.146
334.001,635.015
336.114,636.858
338.051,638.683
340.1637,640.504
342.1,642.245
344.0372,644.077
346.15,645.914
348.087,647.692
350.024,649.581
352.136,651.488
354.073,653.35
356.01,655.343
358.123,657.374
360.0594,659.385
362.172,661.63
364.109,663.762
366.046,666.11
368.159,668.536
370.095,670.96
372.032,673.691
374.145,676.629
376.082,679.612
378.018,682.998
380.131,686.965
382.068,691.207
384.005,696.477
386.117,703.041
388.054,711.776
390.167,725.614
392.104,751.859
394.041,808.492
396.153,838.075
398.09,851.971
400.027,860.717
402.1397,866.642
404.076,870.916
406.0132,874.531
408.126,877.554
410.063,880.059
412.176,882.469
414.112,884.452
416.049,886.333
418.1619,888.048
420.099,889.568
422.0354,891.0439
424.148,892.415
426.085,893.6335
428.022,894.826
430.135,895.935
432.071,896.9361
434.008,897.926
436.121,898.844
438.0576,899.672
440.17,900.535
442.107,901.263
444.044,902.004
446.157,902.695
448.093,903.31
450.03,903.939
452.143,904.533
454.08,905.068
456.017,905.603
458.129,906.099
460.066,906.563
462.003,907.023
464.116,907.464
466.052,907.883
468.165,908.283
470.102,908.65
472.039,909.016
474.152,909.367
476.088,909.689
478.025,910.011
480.1379,910.321
482.075,910.605
484.0114,910.892
486.124,911.166
488.061,911.419
490.174,911.686
492.111,911.921
494.047,912.158
496.1601,912.387
498.097,912.599
500.0,912.809

File: BUW-FZJ_PMMA01_Gasification_q50_Temp_R4.csv
Time,T_back_1
[s],[K]
0.0,291.7
2.112818,291.7
4.04957,291.7
6.16239,291.7
8.09914,291.7
10.0359,291.707
12.1487,291.735
14.0855,291.808
16.0222,291.958
18.135,292.212
20.0718,292.565
22.0085,293.061
24.1213,293.688
26.0581,294.407
28.1709,295.319
30.1077,296.263
32.0444,297.351
34.1572,298.535
36.094,299.746
38.0307,301.087
40.1435,302.496
42.0803,303.9
44.017,305.419
46.12986,306.985
48.06661,308.519
50.00336,310.157
52.1162,311.823
54.0529,313.512
56.1657,315.219
58.1025,316.865
60.0392,318.595
62.1521,320.329
64.0888,321.988
66.0256,323.716
68.1384,325.437
70.0751,327.082
72.0119,328.802
74.1247,330.519
76.0614,332.158
78.1743,333.942
80.111,335.573
82.0478,337.272
84.1606,338.964
86.0973,340.576
88.0341,342.253
90.1469,343.92
92.0837,345.507
94.0204,347.155
96.13322,348.792
98.06997,350.348
100.007,351.962
102.12,353.564
104.056,355.153
106.169,356.728
108.106,358.221
110.043,359.768
112.155,361.3
114.092,362.75
116.029,364.25
118.142,365.732
120.078,367.133
122.015,368.58
124.128,370.006
126.065,371.349
128.002,372.732
130.114,374.088
132.051,375.421
134.164,376.738
136.101,377.9822
138.037,379.271
140.15,380.549
142.087,381.764
144.024,383.026
146.137,384.281
148.073,385.478
150.01,386.724
152.1229,387.968
154.06,389.155
156.172,390.45
158.109,391.636
160.046,392.877
162.159,394.118
164.096,395.309
166.032,396.557
168.1451,397.808
170.082,399.01
172.0186,400.272
174.131,401.541
176.068,402.761
178.005,404.045
180.118,405.339
182.054,406.644
184.1673,407.9598
186.104,409.23
188.0408,410.572
190.154,411.93
192.09,413.243
194.027,414.634
196.14,416.045
198.077,417.415
200.013,418.87
202.126,420.352
204.063,421.795
206.176,423.405
208.113,424.91
210.049,426.509
212.162,428.133
214.099,429.711
216.036,431.386
218.148,433.089
220.085,434.745
222.022,436.506
224.135,438.3
226.072,440.047
228.008,441.909
230.1211,443.808
232.058,445.662
234.171,447.7295
236.107,449.668
238.044,451.74
240.157,453.865
242.094,455.949
244.03,458.185
246.1433,460.486
248.08,462.753
250.0168,465.198
252.13,467.728
254.066,470.236
256.003,472.966
258.116,475.824
260.053,478.812
262.1655,481.935
264.102,485.05
266.039,488.447
268.152,491.999
270.089,495.547
272.025,499.426
274.138,503.49
276.075,507.559
278.012,512.014
280.124,516.693
282.061,521.391
284.174,526.79
286.111,532.0152
288.048,537.775
290.16,543.889
292.097,550.135
294.034,557.202
296.147,565.1
298.083,573.986
300.02,582.754
302.133,589.575
304.07,595.072
306.006,600.049
308.1193,604.354
310.056,608.193
312.169,611.617
314.106,614.591
316.042,617.435
318.155,620.047
320.092,622.371
322.029,624.646
324.1415,626.797
326.078,628.764
328.015,630.742
330.128,632.664
332.065,634.459
334.001,636.314
336.114,638.139
338.051,639.964
340.1637,641.781
342.1,643.532
344.0372,645.369
346.15,647.219
348.087,649.02
350.024,650.921
352.136,652.858
354.073,654.752
356.01,656.776
358.123,658.85
360.0594,660.891
362.172,663.204
364.109,665.3982
366.046,667.807
368.159,670.338
370.095,672.864
372.032,675.71
374.145,678.828
376.082,682.053
378.018,685.702
380.131,689.935
382.068,694.736
384.005,700.846
386.117,708.967
388.054,720.763
390.167,742.277
392.104,792.907
394.041,831.904
396.153,849.118
398.09,858.549
400.027,865.11
402.1397,869.909
404.076,873.563
406.0132,876.744
408.126,879.461
410.063,881.749
412.176,883.978
414.112,885.822
416.049,887.588
418.1619,889.209
420.099,890.6439
422.0354,892.04
424.148,893.342
426.085,894.506
428.022,895.648
430.135,896.713
432.071,897.661
434.008,898.601
436.121,899.491
438.0576,900.277
440.17,901.108
442.107,901.806
444.044,902.52
446.157,903.184
448.093,903.776
450.03,904.374
452.143,904.954
454.08,905.471
456.017,905.981
458.129,906.466
460.066,906.913
462.003,907.36
464.116,907.784
466.052,908.19
468.165,908.577
470.102,908.932
472.039,909.288
474.152,909.628
476.088,909.939
478.025,910.253
480.1379,910.553
482.075,910.83
484.0114,911.108
486.124,911.375
488.061,911.622
490.174,911.881
492.111,912.11
494.047,912.341
496.1601,912.565
498.097,912.771
500.0,912.976

File: BUW-FZJ_PMMA01_Gasification_q50_Temp_R5.csv
Time,T_back_1
[s],[K]
0.0,291.67
2.112818,291.67
4.04957,291.67
6.16239,291.67
8.09914,291.67
10.0359,291.674
12.1487,291.694
14.0855,291.748
16.0222,291.864
18.135,292.066
20.0718,292.356
22.0085,292.771
24.1213,293.305
26.0581,293.927
28.1709,294.726
30.1077,295.561
32.0444,296.533
34.1572,297.599
36.094,298.698
38.0307,299.921
40.1435,301.214
42.0803,302.508
44.017,303.915
46.12986,305.371
48.06661,306.804
50.00336,308.338
52.1162,309.905
54.0529,311.498
56.1657,313.114
58.1025,314.677
60.0392,316.324
62.1521,317.981
64.0888,319.571
66.0256,321.235
68.1384,322.896
70.0751,324.478
72.0119,326.129
74.1247,327.78
76.0614,329.357
78.1743,331.075
80.111,332.647
82.0478,334.286
84.1606,335.921
86.0973,337.48
88.0341,339.103
90.1469,340.72
92.0837,342.259
94.0204,343.86
96.13322,345.453
98.06997,346.968
100.007,348.541
102.12,350.105
104.056,351.658
106.169,353.199
108.106,354.663
110.043,356.181
112.155,357.686
114.092,359.114
116.029,360.594
118.142,362.058
120.078,363.446
122.015,364.881
124.128,366.301
126.065,367.644
128.002,369.03
130.114,370.397
132.051,371.744
134.164,373.069
136.101,374.315
138.037,375.598
140.15,376.865
142.087,378.064
144.024,379.3076
146.137,380.542
148.073,381.714
150.01,382.933
152.1229,384.147
154.06,385.304
156.172,386.562
158.109,387.713
160.046,388.914
162.159,390.115
164.096,391.263
166.032,392.464
168.1451,393.667
170.082,394.82
172.0186,396.0285
174.131,397.2405
176.068,398.404
178.005,399.626
180.118,400.8546
182.054,402.091
184.1673,403.334
186.104,404.533
188.0408,405.794
190.154,407.067
192.09,408.297
194.027,409.594
196.14,410.905
198.077,412.174
200.013,413.516
202.126,414.877
204.063,416.197
206.176,417.659
208.113,419.022
210.049,420.472
212.162,421.951
214.099,423.395
216.036,424.935
218.148,426.501
220.085,428.021
222.022,429.635
224.135,431.276
226.072,432.871
228.008,434.566
230.1211,436.292
232.058,437.971
234.171,439.838
236.107,441.583
238.044,443.443
240.157,445.342
242.094,447.198
244.03,449.18
246.1433,451.21
248.08,453.198
250.0168,455.328
252.13,457.515
254.066,459.665
256.003,461.979
258.116,464.366
260.053,466.833
262.1655,469.391
264.102,471.933
266.039,474.706
268.152,477.611
270.089,480.51
272.025,483.671
274.138,486.971
276.075,490.266
278.012,493.86
280.124,497.622
282.061,501.384
284.174,505.683
286.111,509.815
288.048,514.341
290.16,519.101
292.097,523.88
294.034,529.131
296.147,534.685
298.083,540.287
300.02,546.511
302.133,553.21
304.07,560.2084
306.006,568.499
308.1193,578.049
310.056,585.792
312.169,592.034
314.106,597.172
316.042,601.817
318.155,605.901
320.092,609.386
322.029,612.678
324.1415,615.6662
326.078,618.2909
328.015,620.819
330.128,623.1825
332.065,625.3078
334.001,627.41
336.114,629.435
338.051,631.386
340.1637,633.283
342.1,635.063
344.0372,636.9
346.15,638.725
348.087,640.464
350.024,642.276
352.136,644.106
354.073,645.863
356.01,647.718
358.123,649.603
360.0594,651.429
362.172,653.455
364.109,655.358
366.046,657.388
368.159,659.49
370.095,661.553
372.032,663.767
374.145,666.11
376.082,668.4419
378.018,670.966
380.131,673.713
382.068,676.485
384.005,679.633
386.117,683.043
388.054,686.937
390.167,691.407
392.104,696.435
394.041,703.0804
396.153,711.879
398.09,724.77
400.027,751.395
402.1397,807.789
404.076,836.841
406.0132,851.759
408.126,860.558
410.063,866.307
412.176,871.019
414.112,874.482
416.049,877.524
418.1619,880.1465
420.099,882.365
422.0354,884.444
424.148,886.3329
426.085,887.981
428.022,889.572
430.135,891.049
432.071,892.365
434.008,893.647
436.121,894.84
438.0576,895.902
440.17,897.002
442.107,897.945
444.044,898.86
446.157,899.736
448.093,900.52
450.03,901.292
452.143,902.022
454.08,902.69
456.017,903.335
458.129,903.96
460.066,904.533
462.003,905.094
464.116,905.628
466.052,906.125
468.165,906.61
470.102,907.05
472.039,907.491
474.152,907.91
476.088,908.293
478.025,908.6767
480.1379,909.043
482.075,909.379
484.0114,909.716
486.124,910.038
488.061,910.335
490.174,910.645
492.111,910.919
494.047,911.193
496.1601,911.458
498.097,911.702
500.0,911.945