Folder: matl-db/PMMA/Validation_Results/BUW-FZJ (part 3)

File: BUW-FZJ_A_Gasification_q50_MLR_R5.csv
Time,MLR
[s],[g/m2/s]
0.0,0.0
2.1128,0.0004
4.0496,0.0048
6.1624,0.0215
8.0991,0.0587
10.0359,0.1288
12.1487,0.2361
14.0855,0.3702
16.0222,0.5319
18.135,0.7004
20.0718,0.8594
22.0085,1.0292
24.1213,1.227
26.0581,1.476
28.1709,1.8536
30.1077,2.3234
32.0444,2.952
34.1572,3.7149
36.094,4.5458
38.0307,5.4842
40.1435,6.4531
42.0803,7.3728
44.017,8.2988
46.1299,9.1691
48.0666,9.9408
50.0034,10.681
52.1162,11.3542
54.0529,11.9653
56.1657,12.5188
58.1025,13.0001
60.0392,13.4583
62.1521,13.8748
64.0888,14.2389
66.0256,14.5874
68.1384,14.9061
70.0751,15.1863
72.0119,15.4558
74.1247,15.7036
76.0614,15.9222
78.1743,16.142
80.111,16.328
82.0478,16.5078
84.1606,16.6739
86.0973,16.8211
88.0341,16.9638
90.1469,17.0956
92.0837,17.2127
94.0204,17.3263
96.1332,17.4317
98.07,17.5253
100.0067,17.6162
102.1195,17.7006
104.0563,17.7789
106.1691,17.8517
108.1059,17.9253
110.0426,17.9923
112.1554,18.0558
114.0922,18.1122
116.0289,18.1718
118.1417,18.2266
120.0785,18.2765
122.0152,18.3276
124.1281,18.3776
126.0648,18.4224
128.0016,18.4675
130.1144,18.5107
132.0511,18.553
134.1639,18.5948
136.1007,18.632
138.0374,18.6751
140.1503,18.7147
142.087,18.7536
144.0238,18.7926
146.1366,18.8297
148.0733,18.8687
150.0101,18.9076
152.1229,18.9465
154.0596,18.9855
156.1725,19.0279
158.1092,19.0668
160.046,19.109
162.1588,19.1503
164.0955,19.191
166.0323,19.2394
168.1451,19.2808
170.0818,19.3233
172.0186,19.369
174.1314,19.4145
176.0682,19.4591
178.0049,19.5111
180.1177,19.5622
182.0545,19.6131
184.1673,19.6663
186.104,19.7178
188.0408,19.777
190.1536,19.8348
192.0904,19.891
194.0271,19.9543
196.1399,20.0165
198.0767,20.0795
200.0134,20.1464
202.1263,20.2166
204.063,20.2883
206.1758,20.3609
208.1126,20.4311
210.0493,20.5057
212.1621,20.5831
214.0989,20.6596
216.0356,20.7451
218.1485,20.8295
220.0852,20.9154
222.022,21.0032
224.1348,21.0975
226.0715,21.1867
228.0083,21.2876
230.1211,21.3963
232.0578,21.4872
234.1707,21.5924
236.1074,21.6932
238.0442,21.7986
240.157,21.9073
242.0937,22.0185
244.0305,22.1331
246.1433,22.2519
248.08,22.3661
250.0168,22.5061
252.1296,22.6244
254.0664,22.7408
256.0031,22.8673
258.1159,22.998
260.0527,23.1378
262.1655,23.2762
264.1023,23.4168
266.039,23.575
268.1518,23.7167
270.0886,23.8501
272.0253,24.001
274.1381,24.1604
276.0749,24.3179
278.0116,24.4885
280.1245,24.6701
282.0612,24.8503
284.174,25.0564
286.1108,25.2554
288.0475,25.4751
290.1603,25.708
292.0971,25.9373
294.0338,26.192
296.1467,26.4634
298.0834,26.7443
300.0202,27.0698
302.133,27.3832
304.0697,27.6894
306.0065,28.0588
308.1193,28.4032
310.056,28.7884
312.1689,29.1441
314.1056,29.5251
316.0424,29.9163
318.1552,30.2833
320.0919,30.64
322.0287,31.0244
324.1415,31.3892
326.0783,31.721
328.015,32.0595
330.1278,32.3778
332.0646,32.6586
334.0013,32.9444
336.1141,33.207
338.0509,33.4471
340.1637,33.6436
342.1005,33.7923
344.0372,33.9069
346.15,34.0067
348.0868,34.0703
350.0235,33.9896
352.1363,33.856
354.0731,33.775
356.0098,33.3837
358.1226,32.7081
360.0594,32.0511
362.1722,31.3498
364.109,29.8952
366.0457,27.3807
368.1585,19.8432
370.0953,3.5395
372.032,0.0008
374.1449,0.0
376.0816,0.0
378.0184,0.0
380.1312,0.0
382.0679,0.0
384.0047,0.0
386.1175,0.0
388.0542,0.0
390.1671,0.0
392.1038,0.0
394.0406,0.0
396.1534,0.0
398.0901,0.0
400.0269,0.0
402.1397,0.0
404.0764,0.0
406.0132,0.0
408.126,0.0
410.0628,0.0
412.1756,0.0
414.1123,0.0
416.0491,0.0
418.1619,0.0
420.0986,0.0
422.0354,0.0
424.1482,0.0
426.085,0.0
428.0217,0.0
430.1345,0.0
432.0713,0.0
434.008,0.0
436.1208,0.0
438.0576,0.0
440.1704,0.0
442.1072,0.0
444.0439,0.0
446.1567,0.0
448.0935,0.0
450.0302,0.0
452.1431,0.0
454.0798,0.0
456.0166,0.0
458.1294,0.0
460.0661,0.0
462.0029,0.0
464.1157,0.0
466.0524,0.0
468.1653,0.0
470.102,0.0
472.0388,0.0
474.1516,0.0
476.0883,0.0
478.0251,0.0
480.1379,0.0
482.0746,0.0
484.0114,0.0
486.1242,0.0
488.061,0.0
490.1738,0.0
492.1105,0.0
494.0473,0.0
496.1601,0.0
498.0968,0.0
500.0,0.0

File: BUW-FZJ_A_Gasification_q50_Temp_R2.csv
Time,T_back_1
[s],[K]
0.0,291.2
2.1128,291.2
4.0496,291.2
6.1624,291.2
8.0991,291.2
10.0359,291.2
12.1487,291.2
14.0855,291.2003
16.0222,291.2016
18.135,291.2056
20.0718,291.2151
22.0085,291.2352
24.1213,291.2719
26.0581,291.3289
28.1709,291.4234
30.1077,291.5469
32.0444,291.7208
34.1572,291.9479
36.094,292.2202
38.0307,292.5676
40.1435,292.9843
42.0803,293.4505
44.017,294.0112
46.1299,294.6497
48.0666,295.3336
50.0034,296.1255
52.1162,296.9971
54.0529,297.9464
56.1657,298.9737
58.1025,300.0271
60.0392,301.2006
62.1521,302.4467
64.0888,303.7037
66.0256,305.0835
68.1384,306.5286
70.0751,307.9689
72.0119,309.5326
74.1247,311.1537
76.0614,312.7549
78.1743,314.5557
80.111,316.2534
82.0478,318.0739
84.1606,319.9392
86.0973,321.7629
88.0341,323.7087
90.1469,325.6931
92.0837,327.6251
94.0204,329.6789
96.1332,331.7661
98.07,333.7922
100.0067,335.9398
102.1195,338.1171
104.0563,340.3225
106.1691,342.5549
108.1059,344.7143
110.0426,346.9964
112.1554,349.3026
114.0922,351.5307
116.0289,353.8821
118.1417,356.2558
120.0785,358.5464
122.0152,360.9621
124.1281,363.3981
126.0648,365.7472
128.0016,368.2225
130.1144,370.7175
132.0511,373.2317
134.1639,375.7652
136.1007,378.2061
138.0374,380.7762
140.1503,383.3646
142.087,385.8575
144.0238,388.4814
146.1366,391.1235
148.0733,393.6675
150.0101,396.3445
152.1229,399.0396
154.0596,401.6346
156.1725,404.4832
158.1092,407.1115
160.046,409.8766
162.1588,412.6596
164.0955,415.3382
166.0323,418.1558
168.1451,420.9918
170.0818,423.7209
172.0186,426.591
174.1314,429.4798
176.0682,432.2596
178.0049,435.1835
180.1177,438.1258
182.0545,441.0865
184.1673,444.0658
186.104,446.9324
188.0408,449.9476
190.1536,452.9816
192.0904,455.9019
194.0271,458.9734
196.1399,462.0646
198.0767,465.04
200.0134,468.1702
202.1263,471.3217
204.063,474.3543
206.1758,477.6854
208.1126,480.7595
210.0493,483.995
212.1621,487.254
214.0989,490.3929
216.0356,493.6985
218.1485,497.0288
220.0852,500.2379
222.022,503.6184
224.1348,507.0265
226.0715,510.3123
228.0083,513.7751
230.1211,517.269
232.0578,520.6372
234.1707,524.3431
236.1074,527.7704
238.0442,531.3832
240.157,535.0262
242.0937,538.5365
244.0305,542.2329
246.1433,545.9535
248.08,549.5334
250.0168,553.2964
252.1296,557.0793
254.0664,560.7147
256.0031,564.5217
258.1159,568.3368
260.0527,572.1581
262.1655,575.9816
264.1023,579.6373
266.039,583.4553
268.1518,587.2652
270.0886,590.8976
272.0253,594.6745
274.1381,598.4335
276.0749,602.0138
278.0116,605.7426
280.1245,609.4593
282.0612,613.0078
284.174,616.877
286.1108,620.4301
288.0475,624.1625
290.1603,627.9216
292.0971,631.5583
294.0338,635.4202
296.1467,639.3686
298.0834,643.2412
300.0202,647.4213
302.133,651.758
304.0697,656.0996
306.0065,660.8454
308.1193,665.9401
310.056,671.3207
312.1689,677.1915
314.1056,683.3755
316.0424,690.701
318.1552,699.2824
320.0919,709.4756
322.0287,723.2252
324.1415,747.006
326.0783,786.556
328.015,799.9164
330.1278,808.2333
332.0646,814.689
334.0013,820.1234
336.1141,824.6217
338.0509,828.4628
340.1637,831.7868
342.1005,834.6166
344.0372,837.2692
346.15,839.6589
348.0868,841.7478
350.0235,843.7546
352.1363,845.6028
354.0731,847.2478
356.0098,848.8579
358.1226,850.3699
360.0594,851.7331
362.1722,853.1302
364.109,854.342
366.0457,855.5412
368.1585,856.6813
370.0953,857.7201
372.032,858.7535
374.1449,859.7419
376.0816,860.6464
378.0184,861.5519
380.1312,862.4208
382.0679,863.2193
384.0047,864.0245
386.1175,864.7977
388.0542,865.5445
390.1671,866.2641
392.1038,866.9278
394.0406,867.6004
396.1534,868.2515
398.0901,868.8529
400.0269,869.4653
402.1397,870.0624
404.0764,870.6174
406.0132,871.1819
408.126,871.731
410.0628,872.2395
412.1756,872.781
414.1123,873.2638
416.0491,873.7524
418.1619,874.2314
420.0986,874.6766
422.0354,875.1311
424.1482,875.5719
426.085,875.9865
428.0217,876.407
430.1345,876.8203
432.0713,877.2026
434.008,877.5959
436.1208,877.9791
438.0576,878.3382
440.1704,878.7202
442.1072,879.0652
444.0439,879.417
446.1567,879.7612
448.0935,880.0859
450.0302,880.4155
452.1431,880.7408
454.0798,881.0466
456.0166,881.3567
458.1294,881.6658
460.0661,881.9507
462.0029,882.2468
464.1157,882.5372
466.0524,882.8209
468.1653,883.1011
470.102,883.3628
472.0388,883.6328
474.1516,883.8968
476.0883,884.1464
478.0251,884.4021
480.1379,884.6525
482.0746,884.8895
484.0114,885.1335
486.1242,885.371
488.061,885.5964
490.1738,885.8395
492.1105,886.0543
494.0473,886.2803
496.1601,886.5008
498.0968,886.7082
500.0,886.9199

File: BUW-FZJ_A_Gasification_q50_Temp_R3.csv
Time,T_back_1
[s],[K]
0.0,291.2
2.1128,291.2
4.0496,291.2
6.1624,291.2
8.0991,291.2
10.0359,291.2
12.1487,291.2
14.0855,291.2
16.0222,291.2001
18.135,291.2007
20.0718,291.2022
22.0085,291.206
24.1213,291.2142
26.0581,291.2285
28.1709,291.2548
30.1077,291.2925
32.0444,291.3498
34.1572,291.4302
36.094,291.5325
38.0307,291.6704
40.1435,291.8442
42.0803,292.0475
44.017,292.3018
46.1299,292.6026
48.0666,292.9357
50.0034,293.3336
52.1162,293.7844
54.0529,294.2888
56.1657,294.8486
58.1025,295.4359
60.0392,296.1042
62.1521,296.8288
64.0888,297.5736
66.0256,298.4057
68.1384,299.2924
70.0751,300.1902
72.0119,301.1795
74.1247,302.2202
76.0614,303.2618
78.1743,304.4486
80.111,305.5811
82.0478,306.8094
84.1606,308.0819
86.0973,309.3387
88.0341,310.6925
90.1469,312.0863
92.0837,313.4551
94.0204,314.9221
96.1332,316.4249
98.07,317.8945
100.0067,319.4633
102.1195,321.0643
104.0563,322.6962
106.1691,324.3584
108.1059,325.9758
110.0426,327.6941
112.1554,329.44
114.0922,331.1348
116.0289,332.9318
118.1417,334.7541
120.0785,336.5202
122.0152,338.3897
124.1281,340.2827
126.0648,342.1148
128.0016,344.0519
130.1144,346.0111
132.0511,347.9917
134.1639,349.9937
136.1007,351.928
138.0374,353.9703
140.1503,356.0329
142.087,358.0245
144.0238,360.126
146.1366,362.2471
148.0733,364.294
150.0101,366.4527
152.1229,368.6308
154.0596,370.7317
156.1725,373.0432
158.1092,375.1799
160.046,377.4319
162.1588,379.7025
164.0955,381.8916
166.0323,384.198
168.1451,386.5229
170.0818,388.764
172.0186,391.1241
174.1314,393.5026
176.0682,395.7947
178.0049,398.2086
180.1177,400.641
182.0545,403.0914
184.1673,405.5599
186.104,407.9381
188.0408,410.442
190.1536,412.9641
192.0904,415.3935
194.0271,417.9511
196.1399,420.5274
198.0767,423.0086
200.0134,425.6205
202.1263,428.2508
204.063,430.7842
206.1758,433.5673
208.1126,436.1357
210.0493,438.8391
212.1621,441.5615
214.0989,444.1833
216.0356,446.9425
218.1485,449.7209
220.0852,452.3964
222.022,455.2121
224.1348,458.0476
226.0715,460.7781
228.0083,463.6524
230.1211,466.5468
232.0578,469.3346
234.1707,472.3971
236.1074,475.2245
238.0442,478.2017
240.157,481.2008
242.0937,484.0902
244.0305,487.1337
246.1433,490.2003
248.08,493.1555
250.0168,496.2688
252.1296,499.4075
254.0664,502.4335
256.0031,505.6228
258.1159,508.8397
260.0527,512.0842
262.1655,515.3566
264.1023,518.5129
266.039,521.8413
268.1518,525.1992
270.0886,528.4382
272.0253,531.8527
274.1381,535.296
276.0749,538.614
278.0116,542.1061
280.1245,545.6225
282.0612,549.0043
284.174,552.7139
286.1108,556.1328
288.0475,559.722
290.1603,563.3182
292.0971,566.7641
294.0338,570.3718
296.1467,573.9813
298.0834,577.4343
300.0202,581.0406
302.133,584.6405
304.0697,588.0747
306.0065,591.6474
308.1193,595.2035
310.056,598.7439
312.1689,602.2705
314.1056,605.6313
316.0424,609.1354
318.1552,612.6333
320.0919,615.9778
322.0287,619.4802
324.1415,622.9976
326.0783,626.3854
328.015,629.9633
330.1278,633.5942
332.0646,637.1329
334.0013,640.9188
336.1141,644.8151
338.0509,648.8416
340.1637,653.023
342.1005,657.2034
344.0372,661.8129
346.15,666.7019
348.0868,671.7432
350.0235,677.3953
352.1363,683.7578
354.0731,690.5793
356.0098,698.8336
358.1226,709.3829
360.0594,722.353
362.1722,746.414
364.109,784.3645
366.0457,799.7654
368.1585,808.3463
370.0953,814.9769
372.032,820.5332
374.1449,825.0945
376.0816,828.8089
378.0184,832.1826
380.1312,835.1624
382.0679,837.7126
384.0047,840.1196
386.1175,842.3038
388.0542,844.3108
390.1671,846.1599
392.1038,847.8029
394.0406,849.4117
396.1534,850.9211
398.0901,852.2756
400.0269,853.6117
402.1397,854.8723
404.0764,856.0158
406.0132,857.1506
408.126,858.2295
410.0628,859.2142
412.1756,860.238
414.1123,861.1359
416.0491,862.0353
418.1619,862.8987
420.0986,863.6915
422.0354,864.4906
424.1482,865.2573
426.085,865.9644
428.0217,866.6788
430.1345,867.3684
432.0713,868.0052
434.008,868.6507
436.1208,869.2774
438.0576,869.8603
440.1704,870.4786
442.1072,871.0298
444.0439,871.5875
446.1567,872.1296
448.0935,872.6366
450.0302,873.1484
452.1431,873.6472
454.0798,874.1128
456.0166,874.5853
458.1294,875.0459
460.0661,875.4758
462.0029,875.914
464.1157,876.3406
466.0524,876.7588
468.1653,877.1637
470.102,877.545
472.0388,877.9328
474.1516,878.3132
476.0883,878.6671
478.0251,879.0323
480.1379,879.3871
482.0746,879.7201
484.0114,880.063
486.1242,880.3953
488.061,880.7095
490.1738,881.0464
492.1105,881.345
494.0473,881.6569
496.1601,881.9573
498.0968,882.2429
500.0,882.5325

File: BUW-FZJ_ApproachA_Gasification_q50_Mass_R3.csv
Time,Mass
[s],[g]
0.0,26.4744
2.1128,26.4744
4.0496,26.4744
6.1624,26.4743
8.0991,26.474
10.0359,26.4733
12.1487,26.4718
14.0855,26.4695
16.0222,26.466
18.135,26.4611
20.0718,26.4553
22.0085,26.4479
24.1213,26.439
26.0581,26.429
28.1709,26.4154
30.1077,26.3998
32.0444,26.3791
34.1572,26.353
36.094,26.322
38.0307,26.2827
40.1435,26.2359
42.0803,26.1841
44.017,26.1228
46.1299,26.0545
48.0666,25.983
50.0034,25.9025
52.1162,25.8165
54.0529,25.7255
56.1657,25.63
58.1025,25.5348
60.0392,25.4317
62.1521,25.3251
64.0888,25.2203
66.0256,25.108
68.1384,24.9931
70.0751,24.881
72.0119,24.7616
74.1247,24.6402
76.0614,24.5224
78.1743,24.3921
80.111,24.2711
82.0478,24.1433
84.1606,24.014
86.0973,23.8893
88.0341,23.7577
90.1469,23.625
92.0837,23.4972
94.0204,23.3627
96.1332,23.2273
98.07,23.097
100.0067,22.9601
102.1195,22.8225
104.0563,22.6842
106.1691,22.5453
108.1059,22.4118
110.0426,22.2718
112.1554,22.1311
114.0922,21.9961
116.0289,21.8545
118.1417,21.7124
120.0785,21.576
122.0152,21.433
124.1281,21.2896
126.0648,21.152
128.0016,21.0077
130.1144,20.863
132.0511,20.718
134.1639,20.5725
136.1007,20.433
138.0374,20.2867
140.1503,20.1401
142.087,19.9995
144.0238,19.8521
146.1366,19.7043
148.0733,19.5626
150.0101,19.414
152.1229,19.265
154.0596,19.1222
156.1725,18.9659
158.1092,18.8222
160.046,18.6716
162.1588,18.5205
164.0955,18.3756
166.0323,18.2237
168.1451,18.0712
170.0818,17.925
172.0186,17.7717
174.1314,17.6178
176.0682,17.4702
178.0049,17.3153
180.1177,17.1599
182.0545,17.0039
184.1673,16.8474
186.104,16.6972
188.0408,16.5395
190.1536,16.3813
192.0904,16.2293
194.0271,16.0698
196.1399,15.9096
198.0767,15.7558
200.0134,15.5944
202.1263,15.4321
204.063,15.2763
206.1758,15.1056
208.1126,14.9483
210.0493,14.7831
212.1621,14.6171
214.0989,14.4576
216.0356,14.29
218.1485,14.1215
220.0852,13.9595
222.022,13.7893
224.1348,13.6182
226.0715,13.4536
228.0083,13.2806
230.1211,13.1067
232.0578,12.9393
234.1707,12.7556
236.1074,12.5862
238.0442,12.4082
240.157,12.2291
242.0937,12.0568
244.0305,11.8756
246.1433,11.6932
248.08,11.5176
250.0168,11.3329
252.1296,11.1469
254.0664,10.9679
256.0031,10.7794
258.1159,10.5896
260.0527,10.3983
262.1655,10.2055
264.1023,10.0198
266.039,9.8241
268.1518,9.6267
270.0886,9.4363
272.0253,9.2355
274.1381,9.0327
276.0749,8.837
278.0116,8.6302
280.1245,8.4213
282.0612,8.219
284.174,7.9958
286.1108,7.7886
288.0475,7.5693
290.1603,7.3472
292.0971,7.1319
294.0338,6.9039
296.1467,6.6727
298.0834,6.4487
300.0202,6.2115
302.133,5.9712
304.0697,5.7385
306.0065,5.4923
308.1193,5.2431
310.056,4.9911
312.1689,4.7364
314.1056,4.4906
316.0424,4.2313
318.1552,3.9698
320.0919,3.7179
322.0287,3.4527
324.1415,3.1861
326.0783,2.9301
328.015,2.6616
330.1278,2.3933
332.0646,2.1365
334.0013,1.8689
336.1141,1.604
338.0509,1.3418
340.1637,1.0828
342.1005,0.8399
344.0372,0.5935
346.15,0.3598
348.0868,0.1591
350.0235,0.0188
352.1363,0.0
354.0731,0.0
356.0098,0.0
358.1226,0.0
360.0594,0.0
362.1722,0.0
364.109,0.0
366.0457,0.0
368.1585,0.0
370.0953,0.0
372.032,0.0
374.1449,0.0
376.0816,0.0
378.0184,0.0
380.1312,0.0
382.0679,0.0
384.0047,0.0
386.1175,0.0
388.0542,0.0
390.1671,0.0
392.1038,0.0
394.0406,0.0
396.1534,0.0
398.0901,0.0
400.0269,0.0
402.1397,0.0
404.0764,0.0
406.0132,0.0
408.126,0.0
410.0628,0.0
412.1756,0.0
414.1123,0.0
416.0491,0.0
418.1619,0.0
420.0986,0.0
422.0354,0.0
424.1482,0.0
426.085,0.0
428.0217,0.0
430.1345,0.0
432.0713,0.0
434.008,0.0
436.1208,0.0
438.0576,0.0
440.1704,0.0
442.1072,0.0
444.0439,0.0
446.1567,0.0
448.0935,0.0
450.0302,0.0
452.1431,0.0
454.0798,0.0
456.0166,0.0
458.1294,0.0
460.0661,0.0
462.0029,0.0
464.1157,0.0
466.0524,0.0
468.1653,0.0
470.102,0.0
472.0388,0.0
474.1516,0.0
476.0883,0.0
478.0251,0.0
480.1379,0.0
482.0746,0.0
484.0114,0.0
486.1242,0.0
488.061,0.0
490.1738,0.0
492.1105,0.0
494.0473,0.0
496.1601,0.0
498.0968,0.0
500.0,0.0

File: BUW-FZJ_ApproachA_Gasification_q50_Mass_R4.csv
Time,Mass
[s],[g]
0.0,25.3526
2.112818,25.3526
4.04957,25.3526
6.16239,25.3525
8.09914,25.3522
10.0359,25.3515
12.1487,25.35
14.0855,25.3477
16.0222,25.3442
18.135,25.3393
20.0718,25.3335
22.0085,25.3261
24.1213,25.3173
26.0581,25.3072
28.1709,25.2936
30.1077,25.278
32.0444,25.2573
34.1572,25.2312
36.094,25.2002
38.0307,25.1609
40.1435,25.1141
42.0803,25.0623
44.017,25.001
46.12986,24.9327
48.06661,24.8612
50.00336,24.7807
52.1162,24.6947
54.0529,24.6037
56.1657,24.5082
58.1025,24.413
60.0392,24.3099
62.1521,24.2033
64.0888,24.0985
66.0256,23.9862
68.1384,23.8713
70.0751,23.7591
72.0119,23.6398
74.1247,23.5184
76.0614,23.4005
78.1743,23.2702
80.111,23.1492
82.0478,23.0213
84.1606,22.892
86.0973,22.7672
88.0341,22.6355
90.1469,22.5028
92.0837,22.3748
94.0204,22.2402
96.13322,22.1046
98.06997,21.9742
100.007,21.8371
102.12,21.6993
104.056,21.5607
106.169,21.4215
108.106,21.2877
110.043,21.1472
112.155,21.0061
114.092,20.8707
116.029,20.7285
118.142,20.5858
120.078,20.4489
122.015,20.3052
124.128,20.161
126.065,20.0226
128.002,19.8774
130.114,19.7318
132.051,19.5857
134.164,19.4391
136.101,19.2984
138.037,19.1509
140.15,19.0029
142.087,18.8609
144.024,18.712
146.137,18.5625
148.073,18.4191
150.01,18.2687
152.1229,18.1178
154.06,17.9729
156.172,17.8144
158.109,17.6685
160.046,17.5155
162.159,17.3619
164.096,17.2144
166.032,17.0597
168.1451,16.9044
170.082,16.7553
172.0186,16.5988
174.131,16.4416
176.068,16.2907
178.005,16.1322
180.118,15.9731
182.054,15.8132
184.1673,15.6526
186.104,15.4984
188.0408,15.3364
190.154,15.1736
192.09,15.0171
194.027,14.8528
196.14,14.6876
198.077,14.5288
200.013,14.3619
202.126,14.1941
204.063,14.0327
206.176,13.8557
208.113,13.6926
210.049,13.5211
212.162,13.3487
214.099,13.1828
216.036,13.0083
218.148,12.8329
220.085,12.6639
222.022,12.4862
224.135,12.3075
226.072,12.1355
228.008,11.9545
230.1211,11.7724
232.058,11.5971
234.171,11.4045
236.107,11.2268
238.044,11.0398
240.157,10.8514
242.094,10.6699
244.03,10.4788
246.1433,10.2861
248.08,10.1004
250.0168,9.9047
252.13,9.70736
254.066,9.51694
256.003,9.316096
258.116,9.1133
260.053,8.90849
262.1655,8.7015
264.102,8.50145
266.039,8.28994
268.152,8.07583
270.089,7.86863
272.025,7.64924
274.138,7.42698
276.075,7.21155
278.012,6.98333
280.124,6.7519
282.061,6.52755
284.174,6.27944
286.111,6.0489
288.048,5.80472
290.16,5.55735
292.097,5.3179
294.034,5.06466
296.147,4.80848
298.083,4.56086
300.02,4.2995
302.133,4.03578
304.07,3.7816
306.006,3.514026
308.1193,3.244752
310.056,2.97436
312.169,2.70303
314.106,2.443
316.042,2.17099
318.155,1.89973
320.092,1.6414
322.029,1.37441
324.1415,1.11099
326.078,0.864499
328.015,0.614234
330.128,0.376607
332.065,0.171772
334.001,0.020931
336.114,1.1e-05
338.051,6.93889e-15
340.1637,6.93889e-15
342.1,6.93889e-15
344.0372,6.93889e-15
346.15,6.93889e-15
348.087,6.93889e-15
350.024,6.93889e-15
352.136,6.93889e-15
354.073,6.93889e-15
356.01,6.93889e-15
358.123,6.93889e-15
360.0594,6.93889e-15
362.172,6.93889e-15
364.109,6.93889e-15
366.046,6.93889e-15
368.159,6.93889e-15
370.095,6.93889e-15
372.032,6.93889e-15
374.145,6.93889e-15
376.082,6.93889e-15
378.018,6.93889e-15
380.131,6.93889e-15
382.068,6.93889e-15
384.005,6.93889e-15
386.117,6.93889e-15
388.054,6.93889e-15
390.167,6.93889e-15
392.104,6.93889e-15
394.041,6.93889e-15
396.153,6.93889e-15
398.09,6.93889e-15
400.027,6.93889e-15
402.1397,6.93889e-15
404.076,6.93889e-15
406.0132,6.93889e-15
408.126,6.93889e-15
410.063,6.93889e-15
412.176,6.93889e-15
414.112,6.93889e-15
416.049,6.93889e-15
418.1619,6.93889e-15
420.099,6.93889e-15
422.0354,6.93889e-15
424.148,6.93889e-15
426.085,6.93889e-15
428.022,6.93889e-15
430.135,6.93889e-15
432.071,6.93889e-15
434.008,6.93889e-15
436.121,6.93889e-15
438.0576,6.93889e-15
440.17,6.93889e-15
442.107,6.93889e-15
444.044,6.93889e-15
446.157,6.93889e-15
448.093,6.93889e-15
450.03,6.93889e-15
452.143,6.93889e-15
454.08,6.93889e-15
456.017,6.93889e-15
458.129,6.93889e-15
460.066,6.93889e-15
462.003,6.93889e-15
464.116,6.93889e-15
466.052,6.93889e-15
468.165,6.93889e-15
470.102,6.93889e-15
472.039,6.93889e-15
474.152,6.93889e-15
476.088,6.93889e-15
478.025,6.93889e-15
480.1379,6.93889e-15
482.075,6.93889e-15
484.0114,6.93889e-15
486.124,6.93889e-15
488.061,6.93889e-15
490.174,6.93889e-15
492.111,6.93889e-15
494.047,6.93889e-15
496.1601,6.93889e-15
498.097,6.93889e-15
500.0,6.93889e-15

File: BUW-FZJ_ApproachA_Gasification_q50_Mass_R5.csv
Time,Mass
[s],[g]
0.0,27.8206
2.1128,27.8206
4.0496,27.8205
6.1624,27.8204
8.0991,27.8201
10.0359,27.8194
12.1487,27.818
14.0855,27.8157
16.0222,27.8121
18.135,27.8073
20.0718,27.8014
22.0085,27.794
24.1213,27.7852
26.0581,27.7751
28.1709,27.7615
30.1077,27.7459
32.0444,27.7253
34.1572,27.6991
36.094,27.6682
38.0307,27.6289
40.1435,27.5821
42.0803,27.5303
44.017,27.469
46.1299,27.4006
48.0666,27.3292
50.0034,27.2487
52.1162,27.1626
54.0529,27.0716
56.1657,26.9761
58.1025,26.8809
60.0392,26.7778
62.1521,26.6713
64.0888,26.5665
66.0256,26.4542
68.1384,26.3392
70.0751,26.2271
72.0119,26.1078
74.1247,25.9864
76.0614,25.8686
78.1743,25.7383
80.111,25.6174
82.0478,25.4895
84.1606,25.3603
86.0973,25.2356
88.0341,25.104
90.1469,24.9714
92.0837,24.8437
94.0204,24.7092
96.1332,24.5739
98.07,24.4438
100.0067,24.307
102.1195,24.1695
104.0563,24.0314
106.1691,23.8927
108.1059,23.7595
110.0426,23.6197
112.1554,23.4794
114.0922,23.3447
116.0289,23.2035
118.1417,23.0618
120.0785,22.9259
122.0152,22.7835
124.1281,22.6406
126.0648,22.5036
128.0016,22.36
130.1144,22.2161
132.0511,22.0718
134.1639,21.9273
136.1007,21.7887
138.0374,21.6435
140.1503,21.4979
142.087,21.3585
144.0238,21.2123
146.1366,21.0659
148.0733,20.9256
150.0101,20.7785
152.1229,20.6312
154.0596,20.49
156.1725,20.3356
158.1092,20.1938
160.046,20.0452
162.1588,19.8963
164.0955,19.7536
166.0323,19.604
168.1451,19.4541
170.0818,19.3104
172.0186,19.1598
174.1314,19.0089
176.0682,18.8641
178.0049,18.7125
180.1177,18.5604
182.0545,18.4079
184.1673,18.255
186.104,18.1084
188.0408,17.9547
190.1536,17.8005
192.0904,17.6526
194.0271,17.4975
196.1399,17.342
198.0767,17.1927
200.0134,17.0361
202.1263,16.8791
204.063,16.7282
206.1758,16.5631
208.1126,16.4113
210.0493,16.2519
212.1621,16.092
214.0989,15.9384
216.0356,15.7773
218.1485,15.6154
220.0852,15.46
222.022,15.2969
224.1348,15.133
226.0715,14.9756
228.0083,14.8103
230.1211,14.6441
232.0578,14.4844
234.1707,14.3095
236.1074,14.1483
238.0442,13.9791
240.157,13.8089
242.0937,13.6454
244.0305,13.4735
246.1433,13.3007
248.08,13.1346
250.0168,12.96
252.1296,12.7843
254.0664,12.6154
256.0031,12.4378
258.1159,12.2593
260.0527,12.0797
262.1655,11.899
264.1023,11.7252
266.039,11.5423
268.1518,11.3582
270.0886,11.1811
272.0253,10.9948
274.1381,10.8074
276.0749,10.6268
278.0116,10.4369
280.1245,10.2455
282.0612,10.0611
284.174,9.8584
286.1108,9.671
288.0475,9.4735
290.1603,9.2743
292.0971,9.082
294.0338,8.879
296.1467,8.674
298.0834,8.4759
300.0202,8.2664
302.133,8.0543
304.0697,7.8492
306.0065,7.6322
308.1193,7.4123
310.056,7.1896
312.1689,6.9641
314.1056,6.7455
316.0424,6.5141
318.1552,6.2797
320.0919,6.0528
322.0287,5.8126
324.1415,5.5695
326.0783,5.3345
328.015,5.0862
330.1278,4.8353
332.0646,4.593
334.0013,4.3376
336.1141,4.08
338.0509,3.8205
340.1637,3.5593
342.1005,3.3082
344.0372,3.0446
346.15,2.7805
348.0868,2.527
350.0235,2.262
352.1363,1.9978
354.0731,1.746
356.0098,1.4844
358.1226,1.2275
360.0594,0.9863
362.1722,0.7285
364.109,0.4994
366.0457,0.2748
368.1585,0.0902
370.0953,0.0038
372.032,-0.0
374.1449,-0.0
376.0816,-0.0
378.0184,-0.0
380.1312,-0.0
382.0679,-0.0
384.0047,-0.0
386.1175,-0.0
388.0542,-0.0
390.1671,-0.0
392.1038,-0.0
394.0406,-0.0
396.1534,-0.0
398.0901,-0.0
400.0269,-0.0
402.1397,-0.0
404.0764,-0.0
406.0132,-0.0
408.126,-0.0
410.0628,-0.0
412.1756,-0.0
414.1123,-0.0
416.0491,-0.0
418.1619,-0.0
420.0986,-0.0
422.0354,-0.0
424.1482,-0.0
426.085,-0.0
428.0217,-0.0
430.1345,-0.0
432.0713,-0.0
434.008,-0.0
436.1208,-0.0
438.0576,-0.0
440.1704,-0.0
442.1072,-0.0
444.0439,-0.0
446.1567,-0.0
448.0935,-0.0
450.0302,-0.0
452.1431,-0.0
454.0798,-0.0
456.0166,-0.0
458.1294,-0.0
460.0661,-0.0
462.0029,-0.0
464.1157,-0.0
466.0524,-0.0
468.1653,-0.0
470.102,-0.0
472.0388,-0.0
474.1516,-0.0
476.0883,-0.0
478.0251,-0.0
480.1379,-0.0
482.0746,-0.0
484.0114,-0.0
486.1242,-0.0
488.061,-0.0
490.1738,-0.0
492.1105,-0.0
494.0473,-0.0
496.1601,-0.0
498.0968,-0.0
500.0,-0.0