Folder: matl-db/PMMA/Validation_Results/BUW-FZJ (part 4)

File: BUW-FZJ_ApproachA_Gasification_q50_MLR_R3.csv
Time,MLR
[s],[g/m2/s]
0.0,0.0
2.112818,0.000415521
4.04957,0.00481684
6.16239,0.0215459
8.09914,0.0586477
10.0359,0.1287488
12.1487,0.236087
14.0855,0.370209
16.0222,0.531916
18.135,0.700432
20.0718,0.8593773
22.0085,1.029159
24.1213,1.22703
26.0581,1.47602
28.1709,1.85361
30.1077,2.323382
32.0444,2.95197
34.1572,3.71491
36.094,4.54576
38.0307,5.48416
40.1435,6.45302
42.0803,7.37271
44.017,8.29874
46.12986,9.16904
48.06661,9.94068
50.00336,10.6809
52.1162,11.3541
54.0529,11.9652
56.1657,12.5188
58.1025,13.0001
60.0392,13.4583
62.1521,13.8749
64.0888,14.2391
66.0256,14.5877
68.1384,14.9066
70.0751,15.187
72.0119,15.4568
74.1247,15.7048
76.0614,15.9238
78.1743,16.1442
80.111,16.3307
82.0478,16.5112
84.1606,16.6781
86.0973,16.8262
88.0341,16.9701
90.1469,17.1033
92.0837,17.2218
94.0204,17.3371
96.13322,17.4444
98.06997,17.54
100.007,17.6333
102.12,17.7203
104.056,17.8015
106.169,17.8867
108.106,17.9572
110.043,18.0281
112.155,18.0987
114.092,18.1612
116.029,18.2255
118.142,18.287
120.078,18.3435
122.015,18.3996
124.128,18.4551
126.065,18.5061
128.002,18.5589
130.114,18.6115
132.051,18.6624
134.164,18.7136
136.101,18.7615
138.037,18.8121
140.15,18.8637
142.087,18.9104
144.024,18.9598
146.137,19.0129
148.073,19.0607
150.01,19.1104
152.1229,19.1639
154.06,19.2152
156.172,19.2694
158.109,19.3241
160.046,19.3787
162.159,19.4349
164.096,19.4902
166.032,19.5465
168.1451,19.609
170.082,19.6681
172.0186,19.73242
174.131,19.7956
176.068,19.8591
178.005,19.93
180.118,20.0001
182.054,20.071
184.1673,20.14304
186.104,20.2122
188.0408,20.2884
190.154,20.3701
192.09,20.4477
194.027,20.5301
196.14,20.6131
198.077,20.7001
200.013,20.7891
202.126,20.8834
204.063,20.9727
206.176,21.0753
208.113,21.1679
210.049,21.2698
212.162,21.3758
214.099,21.4768
216.036,21.5831
218.148,21.6973
220.085,21.8065
222.022,21.9248
224.135,22.0413
226.072,22.1582
228.008,22.2825
230.1211,22.4105
232.058,22.5466
234.171,22.6807
236.107,22.7995
238.044,22.93282
240.157,23.0711
242.094,23.2082
244.03,23.3532
246.1433,23.503
248.08,23.64745
250.0168,23.8051
252.13,23.9608
254.066,24.1228
256.003,24.2938
258.116,24.4731
260.053,24.6617
262.1655,24.8498
264.102,25.0339
266.039,25.2364
268.152,25.4601
270.089,25.67688
272.025,25.9156
274.138,26.1611
276.075,26.41538
278.012,26.6844
280.124,26.9955
282.061,27.3056
284.174,27.6398
286.111,27.9807
288.048,28.3418
290.16,28.7166
292.097,29.0806
294.034,29.487
296.147,29.8726
298.083,30.2585
300.02,30.6631
302.133,31.0567
304.07,31.4344
306.006,31.8103
308.1193,32.1883
310.056,32.5337
312.169,32.8647
314.106,33.1498
316.042,33.4448
318.155,33.70944
320.092,33.9361
322.029,34.1584
324.1415,34.3267
326.078,34.4463
328.015,34.5187
330.128,34.483
332.065,34.4796
334.001,34.2296
336.114,33.9295
338.051,33.523
340.1637,32.9868
342.1,32.3373
344.0372,30.8897
346.15,28.6672
348.087,24.78505
350.024,10.2258
352.136,0.0130988
354.073,1.99416e-08
356.01,0.0
358.123,0.0
360.0594,0.0
362.172,0.0
364.109,0.0
366.046,0.0
368.159,0.0
370.095,0.0
372.032,0.0
374.145,0.0
376.082,0.0
378.018,0.0
380.131,0.0
382.068,0.0
384.005,0.0
386.117,0.0
388.054,0.0
390.167,0.0
392.104,0.0
394.041,0.0
396.153,0.0
398.09,0.0
400.027,0.0
402.1397,0.0
404.076,0.0
406.0132,0.0
408.126,0.0
410.063,0.0
412.176,0.0
414.112,0.0
416.049,0.0
418.1619,0.0
420.099,0.0
422.0354,0.0
424.148,0.0
426.085,0.0
428.022,0.0
430.135,0.0
432.071,0.0
434.008,0.0
436.121,0.0
438.0576,0.0
440.17,0.0
442.107,0.0
444.044,0.0
446.157,0.0
448.093,0.0
450.03,0.0
452.143,0.0
454.08,0.0
456.017,0.0
458.129,0.0
460.066,0.0
462.003,0.0
464.116,0.0
466.052,0.0
468.165,0.0
470.102,0.0
472.039,0.0
474.152,0.0
476.088,0.0
478.025,0.0
480.1379,0.0
482.075,0.0
484.0114,0.0
486.124,0.0
488.061,0.0
490.174,0.0
492.111,0.0
494.047,0.0
496.1601,0.0
498.097,0.0
500.0,0.0

File: BUW-FZJ_ApproachA_Gasification_q50_MLR_R4.csv
Time,MLR
[s],[g/m2/s]
0.0,0.0
2.1128,0.0004
4.0496,0.0048
6.1624,0.0215
8.0991,0.0586
10.0359,0.1287
12.1487,0.2361
14.0855,0.3702
16.0222,0.5319
18.135,0.7004
20.0718,0.8594
22.0085,1.0292
24.1213,1.227
26.0581,1.476
28.1709,1.8536
30.1077,2.3234
32.0444,2.952
34.1572,3.7149
36.094,4.5457
38.0307,5.4841
40.1435,6.453
42.0803,7.3727
44.017,8.2987
46.1299,9.169
48.0666,9.9407
50.0034,10.6809
52.1162,11.3541
54.0529,11.9652
56.1657,12.5188
58.1025,13.0003
60.0392,13.4586
62.1521,13.8753
64.0888,14.2397
66.0256,14.5885
68.1384,14.9077
70.0751,15.1884
72.0119,15.4587
74.1247,15.7073
76.0614,15.927
78.1743,16.1482
80.111,16.3356
82.0478,16.5173
84.1606,16.6856
86.0973,16.8352
88.0341,16.9808
90.1469,17.1159
92.0837,17.2366
94.0204,17.3544
96.1332,17.4644
98.07,17.5629
100.0067,17.6595
102.1195,17.7502
104.0563,17.8449
106.1691,17.9273
108.1059,18.0051
110.0426,18.0805
112.1554,18.1568
114.0922,18.2262
116.0289,18.2972
118.1417,18.3627
120.0785,18.4294
122.0152,18.4922
124.1281,18.556
126.0648,18.6145
128.0016,18.6785
130.1144,18.7392
132.0511,18.8017
134.1639,18.863
136.1007,18.92
138.0374,18.9812
140.1503,19.0443
142.087,19.1025
144.0238,19.1632
146.1366,19.2279
148.0733,19.289
150.0101,19.3542
152.1229,19.4226
154.0596,19.4872
156.1725,19.5565
158.1092,19.6212
160.046,19.691
162.1588,19.7658
164.0955,19.8362
166.0323,19.9099
168.1451,19.9891
170.0818,20.0626
172.0186,20.148
174.1314,20.2286
176.0682,20.3101
178.0049,20.4043
180.1177,20.489
182.0545,20.5785
184.1673,20.67
186.104,20.7634
188.0408,20.8605
190.1536,20.9597
192.0904,21.0584
194.0271,21.1642
196.1399,21.2712
198.0767,21.3765
200.0134,21.4952
202.1263,21.6143
204.063,21.7265
206.1758,21.8493
208.1126,21.9666
210.0493,22.0897
212.1621,22.2133
214.0989,22.3398
216.0356,22.4728
218.1485,22.6123
220.0852,22.7534
222.022,22.8902
224.1348,23.0303
226.0715,23.1664
228.0083,23.3172
230.1211,23.4732
232.0578,23.6167
234.1707,23.7881
236.1074,23.94
238.0442,24.1134
240.157,24.2779
242.0937,24.4555
244.0305,24.657
246.1433,24.8385
248.08,25.0278
250.0168,25.2342
252.1296,25.4547
254.0664,25.6769
256.0031,25.9195
258.1159,26.1695
260.0527,26.442
262.1655,26.7214
264.1023,26.9974
266.039,27.3305
268.1518,27.6593
270.0886,27.985
272.0253,28.3569
274.1381,28.7211
276.0749,29.111
278.0116,29.5147
280.1245,29.9152
282.0612,30.3175
284.174,30.7521
286.1108,31.1565
288.0475,31.5655
290.1603,31.9623
292.0971,32.3338
294.0338,32.7134
296.1467,33.0813
298.0834,33.4058
300.0202,33.7226
302.133,34.0157
304.0697,34.2485
306.0065,34.492
308.1193,34.6716
310.056,34.7767
312.1689,34.8942
314.1056,34.9539
316.0424,34.9391
318.1552,34.7601
320.0919,34.5987
322.0287,34.0013
324.1415,33.6319
326.0783,32.6715
328.015,31.276
330.1278,29.4101
332.0646,25.1246
334.0013,11.4021
336.1141,0.0273
338.0509,0.0
340.1637,0.0
342.1005,0.0
344.0372,0.0
346.15,0.0
348.0868,0.0
350.0235,0.0
352.1363,0.0
354.0731,0.0
356.0098,0.0
358.1226,0.0
360.0594,0.0
362.1722,0.0
364.109,0.0
366.0457,0.0
368.1585,0.0
370.0953,0.0
372.032,0.0
374.1449,0.0
376.0816,0.0
378.0184,0.0
380.1312,0.0
382.0679,0.0
384.0047,0.0
386.1175,0.0
388.0542,0.0
390.1671,0.0
392.1038,0.0
394.0406,0.0
396.1534,0.0
398.0901,0.0
400.0269,0.0
402.1397,0.0
404.0764,0.0
406.0132,0.0
408.126,0.0
410.0628,0.0
412.1756,0.0
414.1123,0.0
416.0491,0.0
418.1619,0.0
420.0986,0.0
422.0354,0.0
424.1482,0.0
426.085,0.0
428.0217,0.0
430.1345,0.0
432.0713,0.0
434.008,0.0
436.1208,0.0
438.0576,0.0
440.1704,0.0
442.1072,0.0
444.0439,0.0
446.1567,0.0
448.0935,0.0
450.0302,0.0
452.1431,0.0
454.0798,0.0
456.0166,0.0
458.1294,0.0
460.0661,0.0
462.0029,0.0
464.1157,0.0
466.0524,0.0
468.1653,0.0
470.102,0.0
472.0388,0.0
474.1516,0.0
476.0883,0.0
478.0251,0.0
480.1379,0.0
482.0746,0.0
484.0114,0.0
486.1242,0.0
488.061,0.0
490.1738,0.0
492.1105,0.0
494.0473,0.0
496.1601,0.0
498.0968,0.0
500.0,0.0

File: BUW-FZJ_ApproachA_Gasification_q50_MLR_R5.csv
Time,MLR
[s],[g/m2/s]
0.0,0.0
2.112818,0.00041815
4.04957,0.00481947
6.16239,0.0215486
8.09914,0.0586504
10.0359,0.128752
12.1487,0.23609
14.0855,0.370212
16.0222,0.531919
18.135,0.700435
20.0718,0.859381
22.0085,1.02916
24.1213,1.22703
26.0581,1.47602
28.1709,1.85362
30.1077,2.32339
32.0444,2.951984
34.1572,3.71493
36.094,4.54579
38.0307,5.4842
40.1435,6.45307
42.0803,7.37277
44.017,8.29881
46.12986,9.16911
48.06661,9.94075
50.00336,10.681
52.1162,11.3542
54.0529,11.9653
56.1657,12.5188
58.1025,13.0001
60.0392,13.4583
62.1521,13.8748
64.0888,14.2389
66.0256,14.5874
68.1384,14.9061
70.0751,15.1863
72.0119,15.4558
74.1247,15.7036
76.0614,15.9222
78.1743,16.142
80.111,16.328
82.0478,16.5078
84.1606,16.67388
86.0973,16.8211
88.0341,16.9638
90.1469,17.0956
92.0837,17.2127
94.0204,17.3263
96.13322,17.4317
98.06997,17.5253
100.007,17.6162
102.12,17.7006
104.056,17.7789
106.169,17.8517
108.106,17.9253
110.043,17.9923
112.155,18.0558
114.092,18.1122
116.029,18.1718
118.142,18.2266
120.078,18.2765
122.015,18.3276
124.128,18.37756
126.065,18.4224
128.002,18.4675
130.114,18.5107
132.051,18.553
134.164,18.5948
136.101,18.632
138.037,18.6751
140.15,18.7147
142.087,18.7536
144.024,18.7926
146.137,18.8297
148.073,18.8687
150.01,18.9076
152.1229,18.9465
154.06,18.9855
156.172,19.0279
158.109,19.0668
160.046,19.109
162.159,19.1503
164.096,19.191
166.032,19.23936
168.1451,19.28078
170.082,19.3233
172.0186,19.369
174.131,19.4145
176.068,19.4591
178.005,19.5111
180.118,19.5622
182.054,19.6131
184.1673,19.66629
186.104,19.7178
188.0408,19.777
190.154,19.8348
192.09,19.891
194.027,19.9543
196.14,20.0165
198.077,20.0795
200.013,20.1464
202.126,20.2166
204.063,20.28826
206.176,20.3609
208.113,20.43112
210.049,20.5057
212.162,20.5831
214.099,20.6596
216.036,20.7451
218.148,20.8295
220.085,20.9154
222.022,21.0032
224.135,21.0975
226.072,21.1867
228.008,21.2876
230.1211,21.3963
232.058,21.4872
234.171,21.5924
236.107,21.6932
238.044,21.7986
240.157,21.9073
242.094,22.0185
244.03,22.1331
246.1433,22.2519
248.08,22.3661
250.0168,22.5061
252.13,22.6244
254.066,22.7408
256.003,22.8673
258.116,22.998
260.053,23.13784
262.1655,23.2762
264.102,23.4168
266.039,23.57497
268.152,23.7167
270.089,23.8501
272.025,24.00101
274.138,24.1604
276.075,24.3179
278.012,24.4885
280.124,24.6701
282.061,24.8503
284.174,25.0564
286.111,25.2554
288.048,25.4751
290.16,25.708
292.097,25.9373
294.034,26.192
296.147,26.4634
298.083,26.7443
300.02,27.0698
302.133,27.3832
304.07,27.6894
306.006,28.0588
308.1193,28.4032
310.056,28.7884
312.169,29.1441
314.106,29.5251
316.042,29.9163
318.155,30.2833
320.092,30.64002
322.029,31.0244
324.1415,31.3892
326.078,31.721
328.015,32.0595
330.128,32.37777
332.065,32.6586
334.001,32.9444
336.114,33.207
338.051,33.4471
340.1637,33.6436
342.1,33.79227
344.0372,33.9069
346.15,34.0067
348.087,34.0703
350.024,33.9896
352.136,33.856
354.073,33.775
356.01,33.38369
358.123,32.7081
360.0594,32.0511
362.172,31.3498
364.109,29.8952
366.046,27.3807
368.159,19.8432
370.095,3.53952
372.032,0.000772157
374.145,5.2666e-11
376.082,0.0
378.018,0.0
380.131,0.0
382.068,0.0
384.005,0.0
386.117,0.0
388.054,0.0
390.167,0.0
392.104,0.0
394.041,0.0
396.153,0.0
398.09,0.0
400.027,0.0
402.1397,0.0
404.076,0.0
406.0132,0.0
408.126,0.0
410.063,0.0
412.176,0.0
414.112,0.0
416.049,0.0
418.1619,0.0
420.099,0.0
422.0354,0.0
424.148,0.0
426.085,0.0
428.022,0.0
430.135,0.0
432.071,0.0
434.008,0.0
436.121,0.0
438.0576,0.0
440.17,0.0
442.107,0.0
444.044,0.0
446.157,0.0
448.093,0.0
450.03,0.0
452.143,0.0
454.08,0.0
456.017,0.0
458.129,0.0
460.066,0.0
462.003,0.0
464.116,0.0
466.052,0.0
468.165,0.0
470.102,0.0
472.039,0.0
474.152,0.0
476.088,0.0
478.025,0.0
480.1379,0.0
482.075,0.0
484.0114,0.0
486.124,0.0
488.061,0.0
490.174,0.0
492.111,0.0
494.047,0.0
496.1601,0.0
498.097,0.0
500.0,0.0

File: BUW-FZJ_ApproachA_Gasification_q50_Temp_R1.csv
Time,T_back_1
[s],[K]
0.0,290.65
2.112818,290.65
4.04957,290.65
6.16239,290.65
8.09914,290.65
10.0359,290.65
12.1487,290.65
14.0855,290.651
16.0222,290.653
18.135,290.66
20.0718,290.675
22.0085,290.706
24.1213,290.761
26.0581,290.843
28.1709,290.976
30.1077,291.145
32.0444,291.378
34.1572,291.677
36.094,292.03
38.0307,292.473
40.1435,292.998
42.0803,293.579
44.017,294.269
46.12986,295.048
48.06661,295.875
50.00336,296.825
52.1162,297.862
54.0529,298.983
56.1657,300.189
58.1025,301.417
60.0392,302.778
62.1521,304.215
64.0888,305.658
66.0256,307.234
68.1384,308.877
70.0751,310.507
72.0119,312.271
74.1247,314.092
76.0614,315.884
78.1743,317.893
80.111,319.781
82.0478,321.8
84.1606,323.862
86.0973,325.872
88.0341,328.012
90.1469,330.189
92.0837,332.304
94.0204,334.547
96.13322,336.822
98.06997,339.027
100.007,341.359
102.12,343.72
104.056,346.106
106.169,348.519
108.106,350.849
110.043,353.307
112.155,355.789
114.092,358.183
116.029,360.708
118.142,363.253
120.078,365.706
122.015,368.29
124.128,370.894
126.065,373.403
128.002,376.044
130.114,378.704
132.051,381.381
134.164,384.078
136.101,386.673
138.037,389.404
140.15,392.153
142.087,394.798
144.024,397.581
146.137,400.381
148.073,403.076
150.01,405.91
152.1229,408.762
154.06,411.5055
156.172,414.517
158.109,417.293
160.046,420.213
162.159,423.15
164.096,425.976
166.032,428.948
168.1451,431.937
170.082,434.814
172.0186,437.838
174.131,440.879
176.068,443.806
178.005,446.883
180.118,449.978
182.054,453.0924
184.1673,456.225
186.104,459.239
188.0408,462.409
190.154,465.599
192.09,468.668
194.027,471.896
196.14,475.1457
198.077,478.274
200.013,481.565
202.126,484.878
204.063,488.068
206.176,491.573
208.113,494.808
210.049,498.216
212.162,501.65
214.099,504.959
216.036,508.444
218.148,511.958
220.085,515.346
222.022,518.918
224.135,522.52
226.072,525.994
228.008,529.656
230.1211,533.349
232.058,536.909
234.171,540.82
236.107,544.43
238.044,548.227
240.157,552.046
242.094,555.7185
244.03,559.578
246.1433,563.447
248.08,567.155
250.0168,571.037
252.13,574.924
254.066,578.643
256.003,582.526
258.116,586.402
260.053,590.267
262.1655,594.112
264.102,597.772
266.039,601.582
268.152,605.375
270.089,608.992
272.025,612.765
274.138,616.535
276.075,620.147
278.012,623.939
280.124,627.759
282.061,631.454
284.174,635.55
286.111,639.382
288.048,643.495
290.16,647.736
292.097,651.96
294.034,656.575
296.147,661.438
298.083,666.398
300.02,671.965
302.133,678.006
304.07,684.2943
306.006,691.884
308.1193,700.8854
310.056,711.708
312.169,727.077
314.106,750.151
316.042,790.726
318.155,800.699
320.092,808.62
322.029,815.219
324.1415,820.519
326.078,824.752
328.015,828.538
330.128,831.831
332.065,834.634
334.001,837.261
336.114,839.635
338.051,841.799
340.1637,843.781
342.1,845.537
344.0372,847.247
346.15,848.841
348.087,850.282
350.024,851.7
352.136,853.031
354.073,854.239
356.01,855.435
358.123,856.571
360.0594,857.6064
362.172,858.6831
364.109,859.6237
366.046,860.566
368.159,861.469
370.095,862.297
372.032,863.13
374.145,863.932
376.082,864.671
378.018,865.4173
380.131,866.137
382.068,866.8009
384.005,867.473
386.117,868.124
388.054,868.752
390.167,869.364
392.104,869.934
394.041,870.514
396.153,871.079
398.09,871.602
400.027,872.134
402.1397,872.654
404.076,873.135
406.0132,873.626
408.126,874.105
410.063,874.55
412.176,875.023
414.112,875.447
416.049,875.8788
418.1619,876.3
420.099,876.694
422.0354,877.095
424.148,877.489
426.085,877.8556
428.022,878.233
430.135,878.598
432.071,878.945
434.008,879.296
436.121,879.641
438.0576,879.966
440.17,880.31
442.107,880.621
444.044,880.942
446.157,881.25
448.093,881.547
450.03,881.847
452.143,882.142
454.08,882.421
456.017,882.706
458.129,882.984
460.066,883.248
462.003,883.5186
464.116,883.784
466.052,884.043
468.165,884.301
470.102,884.5405
472.039,884.788
474.152,885.032
476.088,885.261
478.025,885.495
480.1379,885.728
482.075,885.947
484.0114,886.1695
486.124,886.393
488.061,886.6
490.174,886.823
492.111,887.025
494.047,887.235
496.1601,887.439
498.097,887.632
500.0,887.829

File: BUW-FZJ_ApproachA_Gasification_q50_Temp_R2.csv
Time,T_back_1
[s],[K]
0.0,291.2
2.112818,291.2
4.04957,291.2
6.16239,291.2
8.09914,291.2
10.0359,291.2
12.1487,291.2
14.0855,291.2
16.0222,291.202
18.135,291.206
20.0718,291.215
22.0085,291.235
24.1213,291.272
26.0581,291.329
28.1709,291.423
30.1077,291.547
32.0444,291.721
34.1572,291.948
36.094,292.22
38.0307,292.568
40.1435,292.984
42.0803,293.451
44.017,294.011
46.12986,294.65
48.06661,295.334
50.00336,296.126
52.1162,296.997
54.0529,297.946
56.1657,298.974
58.1025,300.027
60.0392,301.201
62.1521,302.447
64.0888,303.704
66.0256,305.084
68.1384,306.529
70.0751,307.969
72.0119,309.533
74.1247,311.154
76.0614,312.755
78.1743,314.556
80.111,316.253
82.0478,318.074
84.1606,319.939
86.0973,321.763
88.0341,323.709
90.1469,325.693
92.0837,327.625
94.0204,329.679
96.13322,331.766
98.06997,333.792
100.007,335.94
102.12,338.117
104.056,340.323
106.169,342.555
108.106,344.714
110.043,346.996
112.155,349.303
114.092,351.531
116.029,353.882
118.142,356.256
120.078,358.546
122.015,360.962
124.128,363.398
126.065,365.747
128.002,368.222
130.114,370.717
132.051,373.2317
134.164,375.765
136.101,378.206
138.037,380.776
140.15,383.3646
142.087,385.857
144.024,388.4814
146.137,391.123
148.073,393.667
150.01,396.345
152.1229,399.04
154.06,401.635
156.172,404.483
158.109,407.112
160.046,409.877
162.159,412.66
164.096,415.338
166.032,418.156
168.1451,420.992
170.082,423.7209
172.0186,426.591
174.131,429.48
176.068,432.26
178.005,435.184
180.118,438.126
182.054,441.086
184.1673,444.066
186.104,446.932
188.0408,449.948
190.154,452.982
192.09,455.902
194.027,458.973
196.14,462.065
198.077,465.04
200.013,468.17
202.126,471.322
204.063,474.354
206.176,477.685
208.113,480.759
210.049,483.995
212.162,487.254
214.099,490.393
216.036,493.699
218.148,497.029
220.085,500.238
222.022,503.618
224.135,507.026
226.072,510.312
228.008,513.775
230.1211,517.269
232.058,520.637
234.171,524.343
236.107,527.77
238.044,531.383
240.157,535.026
242.094,538.536
244.03,542.233
246.1433,545.953
248.08,549.533
250.0168,553.296
252.13,557.079
254.066,560.715
256.003,564.522
258.116,568.3368
260.053,572.158
262.1655,575.982
264.102,579.637
266.039,583.455
268.152,587.265
270.089,590.898
272.025,594.674
274.138,598.434
276.075,602.014
278.012,605.743
280.124,609.4593
282.061,613.008
284.174,616.877
286.111,620.43
288.048,624.163
290.16,627.922
292.097,631.558
294.034,635.42
296.147,639.369
298.083,643.241
300.02,647.421
302.133,651.758
304.07,656.1
306.006,660.845
308.1193,665.94
310.056,671.321
312.169,677.192
314.106,683.376
316.042,690.701
318.155,699.282
320.092,709.476
322.029,723.225
324.1415,747.006
326.078,786.556
328.015,799.916
330.128,808.233
332.065,814.689
334.001,820.123
336.114,824.622
338.051,828.463
340.1637,831.787
342.1,834.617
344.0372,837.269
346.15,839.659
348.087,841.748
350.024,843.755
352.136,845.603
354.073,847.248
356.01,848.858
358.123,850.37
360.0594,851.733
362.172,853.13
364.109,854.342
366.046,855.541
368.159,856.681
370.095,857.72
372.032,858.753
374.145,859.742
376.082,860.646
378.018,861.552
380.131,862.421
382.068,863.219
384.005,864.024
386.117,864.7977
388.054,865.544
390.167,866.264
392.104,866.928
394.041,867.6
396.153,868.2515
398.09,868.853
400.027,869.465
402.1397,870.062
404.076,870.6174
406.0132,871.182
408.126,871.731
410.063,872.24
412.176,872.781
414.112,873.264
416.049,873.752
418.1619,874.231
420.099,874.677
422.0354,875.131
424.148,875.572
426.085,875.987
428.022,876.407
430.135,876.82
432.071,877.203
434.008,877.596
436.121,877.979
438.0576,878.338
440.17,878.72
442.107,879.065
444.044,879.417
446.157,879.7612
448.093,880.086
450.03,880.416
452.143,880.741
454.08,881.047
456.017,881.357
458.129,881.666
460.066,881.9507
462.003,882.247
464.116,882.537
466.052,882.821
468.165,883.101
470.102,883.363
472.039,883.633
474.152,883.897
476.088,884.146
478.025,884.402
480.1379,884.6525
482.075,884.889
484.0114,885.134
486.124,885.371
488.061,885.5964
490.174,885.839
492.111,886.0543
494.047,886.28
496.1601,886.501
498.097,886.708
500.0,886.92

File: BUW-FZJ_ApproachA_Gasification_q50_Temp_R3.csv
Time,T_back_1
[s],[K]
0.0,291.2
2.112818,291.2
4.04957,291.2
6.16239,291.2
8.09914,291.2
10.0359,291.2
12.1487,291.2
14.0855,291.2
16.0222,291.2
18.135,291.201
20.0718,291.202
22.0085,291.206
24.1213,291.214
26.0581,291.228
28.1709,291.255
30.1077,291.292
32.0444,291.35
34.1572,291.43
36.094,291.533
38.0307,291.67
40.1435,291.844
42.0803,292.047
44.017,292.302
46.12986,292.603
48.06661,292.936
50.00336,293.334
52.1162,293.784
54.0529,294.289
56.1657,294.849
58.1025,295.436
60.0392,296.104
62.1521,296.829
64.0888,297.574
66.0256,298.406
68.1384,299.292
70.0751,300.19
72.0119,301.18
74.1247,302.22
76.0614,303.262
78.1743,304.449
80.111,305.581
82.0478,306.809
84.1606,308.082
86.0973,309.339
88.0341,310.693
90.1469,312.086
92.0837,313.455
94.0204,314.922
96.13322,316.425
98.06997,317.894
100.007,319.463
102.12,321.064
104.056,322.696
106.169,324.358
108.106,325.976
110.043,327.694
112.155,329.44
114.092,331.135
116.029,332.932
118.142,334.754
120.078,336.52
122.015,338.39
124.128,340.283
126.065,342.115
128.002,344.052
130.114,346.011
132.051,347.992
134.164,349.994
136.101,351.928
138.037,353.97
140.15,356.033
142.087,358.025
144.024,360.126
146.137,362.247
148.073,364.294
150.01,366.453
152.1229,368.631
154.06,370.732
156.172,373.043
158.109,375.18
160.046,377.432
162.159,379.703
164.096,381.8916
166.032,384.198
168.1451,386.523
170.082,388.764
172.0186,391.124
174.131,393.503
176.068,395.795
178.005,398.209
180.118,400.641
182.054,403.091
184.1673,405.56
186.104,407.938
188.0408,410.442
190.154,412.964
192.09,415.394
194.027,417.9511
196.14,420.527
198.077,423.009
200.013,425.6205
202.126,428.251
204.063,430.784
206.176,433.567
208.113,436.136
210.049,438.839
212.162,441.562
214.099,444.183
216.036,446.942
218.148,449.721
220.085,452.396
222.022,455.212
224.135,458.048
226.072,460.778
228.008,463.652
230.1211,466.547
232.058,469.335
234.171,472.397
236.107,475.225
238.044,478.202
240.157,481.201
242.094,484.09
244.03,487.1337
246.1433,490.2
248.08,493.155
250.0168,496.269
252.13,499.407
254.066,502.433
256.003,505.623
258.116,508.84
260.053,512.0842
262.1655,515.357
264.102,518.513
266.039,521.841
268.152,525.199
270.089,528.438
272.025,531.853
274.138,535.296
276.075,538.614
278.012,542.106
280.124,545.622
282.061,549.004
284.174,552.714
286.111,556.133
288.048,559.722
290.16,563.318
292.097,566.7641
294.034,570.372
296.147,573.981
298.083,577.434
300.02,581.041
302.133,584.6405
304.07,588.075
306.006,591.647
308.1193,595.203
310.056,598.744
312.169,602.2705
314.106,605.631
316.042,609.135
318.155,612.633
320.092,615.978
322.029,619.48
324.1415,622.998
326.078,626.3854
328.015,629.963
330.128,633.594
332.065,637.133
334.001,640.919
336.114,644.815
338.051,648.842
340.1637,653.023
342.1,657.203
344.0372,661.813
346.15,666.702
348.087,671.743
350.024,677.395
352.136,683.758
354.073,690.579
356.01,698.834
358.123,709.383
360.0594,722.353
362.172,746.414
364.109,784.364
366.046,799.765
368.159,808.346
370.095,814.977
372.032,820.533
374.145,825.095
376.082,828.809
378.018,832.183
380.131,835.162
382.068,837.713
384.005,840.12
386.117,842.304
388.054,844.311
390.167,846.16
392.104,847.8029
394.041,849.412
396.153,850.921
398.09,852.276
400.027,853.612
402.1397,854.872
404.076,856.016
406.0132,857.151
408.126,858.229
410.063,859.214
412.176,860.238
414.112,861.136
416.049,862.035
418.1619,862.899
420.099,863.692
422.0354,864.491
424.148,865.257
426.085,865.964
428.022,866.679
430.135,867.368
432.071,868.005
434.008,868.651
436.121,869.277
438.0576,869.86
440.17,870.479
442.107,871.03
444.044,871.5875
446.157,872.13
448.093,872.637
450.03,873.148
452.143,873.647
454.08,874.113
456.017,874.585
458.129,875.046
460.066,875.476
462.003,875.914
464.116,876.341
466.052,876.759
468.165,877.164
470.102,877.545
472.039,877.933
474.152,878.313
476.088,878.667
478.025,879.032
480.1379,879.387
482.075,879.72
484.0114,880.063
486.124,880.395
488.061,880.71
490.174,881.046
492.111,881.345
494.047,881.657
496.1601,881.957
498.097,882.243
500.0,882.533