Folder: matl-db/PMMA/Validation_Results/BUW-FZJ (part 9)

File: BUW-FZJ_Gasification_q50_Temp_Kaowool.csv
Time,Temperature_5-72mm,Temperature_11-44mm,Temperature_17-16mm
0.0,290.65,290.65,290.65
5.106,290.6601,290.65,290.65
10.0359,292.3809,290.65,290.65
15.1419,300.7531,290.6516,290.65
20.0718,315.258,290.6797,290.65
25.0017,333.6622,290.8338,290.6499
30.1077,353.5531,291.2755,290.65
35.0376,373.626,292.1591,290.6522
40.1435,393.1923,293.5874,290.6616
45.0735,411.6095,295.5598,290.6868
50.0034,429.4033,298.1389,290.7419
55.1093,446.2005,301.2563,290.8428
60.0392,462.0222,304.8539,291.0061
65.1452,476.9114,308.8687,291.248
70.0751,490.6879,313.1565,291.576
75.005,503.9044,317.8102,292.013
80.111,516.3665,322.7007,292.5631
85.0409,528.134,327.7778,293.2317
90.1469,539.2385,332.9985,294.0226
95.0768,549.4371,338.2306,294.9192
100.0067,559.1416,343.6295,295.9528
105.1127,568.228,349.0751,297.106
110.0426,576.7573,354.5441,298.3748
115.1486,584.7783,360.0173,299.7548
120.0785,592.2091,365.3827,301.2134
125.0084,599.3533,370.8187,302.7971
130.1144,606.1117,376.218,304.4747
135.0443,612.5151,381.5718,306.24
140.1503,618.5929,386.873,308.0867
145.0802,624.2712,392.0245,309.9743
150.0101,629.7766,397.2058,311.9643
155.1161,635.0247,402.3207,314.018
160.046,640.0352,407.3667,316.1296
165.1519,644.8236,412.3415,318.2938
170.0818,649.3276,417.1585,320.4665
175.0118,653.7221,421.9886,322.7203
180.1177,657.9359,426.7447,325.0126
185.0476,661.9823,431.4266,327.339
190.1536,665.8709,436.0342,329.6956
195.0835,669.5476,440.4892,332.0367
200.0134,673.1524,444.9511,334.4424
205.1194,676.6256,449.3403,336.868
210.0493,679.9756,453.6578,339.3104
215.1553,683.2094,457.9043,341.7671
220.0852,686.2796,462.0083,344.1919
225.0151,689.3012,466.1175,346.6692
230.1211,692.2244,470.1591,349.1535
235.051,695.0539,474.1343,351.643
240.157,697.7949,478.0443,354.1356
245.0869,700.4051,481.8234,356.5861
250.0168,702.9834,485.608,359.0802
255.1228,705.484,489.3311,361.5729
260.0527,707.9129,492.9941,364.0628
265.1587,710.2722,496.5981,366.5487
270.0886,712.5255,500.0828,368.9861
275.0185,714.7568,503.5739,371.461
280.1245,716.9279,507.0098,373.9288
285.0544,719.0413,510.3919,376.3888
290.1603,721.0992,513.7211,378.8402
295.0903,723.0692,516.9418,381.2397
300.0202,725.0245,520.1699,383.6722
305.1261,726.9305,523.3489,386.0944
310.056,728.7892,526.4796,388.5058
315.162,730.603,529.5633,390.9058
320.0919,732.3445,532.5483,393.2523
325.0218,734.0778,535.5393,395.6288
330.1278,735.7642,538.4749,397.993
335.0577,737.391,541.3049,400.3033
340.1637,739.0347,544.1816,402.6829
345.0936,740.5874,546.9084,404.9676
350.0235,742.1298,549.6343,407.2798
355.1295,743.6478,552.3103,409.5784
360.0594,745.0993,554.8929,411.8233
365.1654,746.578,557.521,414.1343
370.0953,747.9714,560.0133,416.3518
375.0252,749.3649,562.5076,418.595
380.1312,750.7288,564.958,420.8239
385.0611,752.0413,567.3259,422.9998
390.1671,753.3767,569.7368,425.2389
395.097,754.6403,572.0254,427.3866
400.0269,755.9012,574.3173,429.5583
405.1329,757.1395,576.5717,431.7155
410.0628,758.3341,578.7509,433.8207
415.1687,759.5484,580.9713,435.9863
420.0986,760.6992,583.0818,438.063
425.0286,761.8498,585.1966,440.1623
430.1345,762.98,587.2783,442.2471
435.0644,764.0717,589.2921,444.2811
440.1704,765.1827,591.3465,446.373
445.1003,766.2374,593.2997,448.3785
450.0302,767.2928,595.2584,450.4055
455.1362,768.3309,597.1878,452.418
460.0661,769.334,599.0557,454.3812
465.1721,770.3558,600.9622,456.3998
470.102,771.3269,602.7767,458.3347
475.0319,772.2996,604.5972,460.2899
480.1379,773.2568,606.3919,462.2309
485.0678,774.1831,608.1297,464.1239
490.1738,775.1273,609.9053,466.0701
495.1037,776.0253,611.5959,467.9352
500.0336,776.926,613.2931,469.8198
505.1396,777.8131,614.9668,471.6902
510.0695,778.672,616.5894,473.5142
515.1755,779.5484,618.2473,475.3891
520.1054,780.3823,619.827,477.1858
525.0353,781.2192,621.414,479.0008
530.1413,782.0439,622.9794,480.802
535.0712,782.8433,624.4981,482.5583
540.0011,783.6457,626.0237,484.3324
545.107,784.4369,627.5304,486.0929
550.037,785.2172,629.0171,487.8399
555.1429,785.987,630.4857,489.5733
560.0728,786.7335,631.9104,491.2634
565.0028,787.4834,633.3422,492.9703
570.1087,788.2227,634.7564,494.664
575.0386,788.9529,636.1533,496.3444
580.1446,789.6735,637.5332,498.0117
585.0745,790.3727,638.8724,499.637
590.0044,791.075,640.2189,501.2784
595.1104,791.7684,641.5496,502.9068
600.0403,792.4536,642.8641,504.5224
605.1463,793.1298,644.1628,506.1251
610.0762,793.786,645.4242,507.6873
615.0061,794.4461,646.6929,509.2648
620.1121,795.0979,647.9465,510.8296
625.042,795.7419,649.1856,512.3819
630.148,796.3784,650.4106,513.9217
635.0779,796.9959,651.6002,515.4224
640.0078,797.6175,652.797,516.9376
645.1138,798.2312,653.9803,518.4405
650.0437,798.8381,655.1501,519.9312
655.1497,799.438,656.3068,521.4097
660.0796,800.0205,657.4304,522.8505
665.0095,800.6068,658.561,524.3051
670.1154,801.186,659.6791,525.7477
675.0454,801.7589,660.7847,527.1784
680.1513,802.3255,661.8779,528.5974
685.0812,802.8756,662.9403,529.9799
690.0112,803.4296,664.0098,531.3756
695.1171,803.9774,665.0674,532.7597
700.047,804.5189,666.1134,534.1319
705.153,805.0548,667.1479,535.4909
710.0829,805.5752,668.1534,536.8119
715.0128,806.0993,669.1657,538.143
720.1188,806.6178,670.1671,539.4603
725.0487,807.1304,671.1575,540.7638
730.1547,807.638,672.1375,542.054
735.0846,808.1308,673.0901,543.3085
740.0145,808.6276,674.0494,544.5725
745.1205,809.1184,674.9979,545.8229
750.0504,809.6052,675.9365,547.0607
755.1564,810.0852,676.8653,548.2856
760.0863,810.5533,677.7676,549.4767
765.0162,811.0236,678.6767,550.6764
770.1222,811.49,679.5768,551.8638
775.0521,811.9508,680.4668,553.0388
780.1581,812.4073,681.3469,554.2015
785.088,812.8513,682.2033,555.3322
790.0179,813.2984,683.0653,556.4713
795.1238,813.7412,683.9186,557.5982
800.0538,814.1795,684.7628,558.7135
805.1597,814.6134,685.5984,559.8174
810.0896,815.0354,686.4107,560.8907
815.0196,815.4608,687.2288,561.9718
820.1255,815.8819,688.0383,563.0416
825.0554,816.2987,688.8396,564.1003
830.1614,816.7114,689.6323,565.148
835.0913,817.113,690.4034,566.1666
840.0212,817.5177,691.18,567.1928
845.1272,817.9182,691.9484,568.2082
850.0571,818.308,692.6956,569.1954
855.1631,818.7076,693.4619,570.2074
860.093,819.0897,694.1936,571.1742
865.0229,819.4749,694.9308,572.1481
870.1289,819.8561,695.6605,573.1118
875.0588,820.2271,696.37,574.0487
880.1648,820.6076,697.0974,575.009
885.0947,820.9713,697.7923,575.9266
890.0246,821.3378,698.4926,576.8507
895.1306,821.7008,699.1854,577.7652
900.0605,822.054,699.8593,578.6545
905.1664,822.4164,700.55,579.5659
910.0964,822.7624,701.2098,580.4366
915.0263,823.1116,701.8746,581.3134
920.1322,823.4572,702.5327,582.1812
925.0622,823.7934,703.1725,583.0251
930.1681,824.1385,703.8285,583.8898
935.098,824.4683,704.4553,584.7159
940.028,824.8005,705.0866,585.5483
945.1339,825.1298,705.7116,586.3716
950.0638,825.45,706.3194,587.1722
955.1698,825.7784,706.9426,587.9927
960.0997,826.0925,707.5382,588.7765
965.0296,826.409,708.1379,589.5663
970.1356,826.7224,708.7315,590.3475
975.0655,827.0274,709.3089,591.1071
980.1715,827.3402,709.9008,591.8856
985.1014,827.6392,710.4664,592.6292
990.0313,827.9407,711.036,593.3785
995.1373,828.2392,711.6001,594.1198
1000.07,828.5297,712.1485,594.8404
1005.17,828.8275,712.7107,595.579
1010.1,829.1123,713.2479,596.2845
1015.033,829.3993,713.7891,596.9953
1020.139,829.6837,714.325,597.6984
1025.07,829.9603,714.846,598.3821
1030.17,830.2439,715.3801,599.0828
1035.1,830.5152,715.8905,599.752
1040.03,830.7885,716.4046,600.4264
1045.14,831.0592,716.9136,601.0935
1050.07,831.3225,717.4085,601.7419
1055,831.5879,717.9071,602.3952
1060.11,831.8508,718.4006,603.0416
1065.04,832.1112,718.8891,603.681
1070.14,832.3689,719.3724,604.3138
1075.07,832.6196,719.8425,604.9291
1080,832.8724,720.3161,605.5488
1085.11,833.1226,720.7849,606.1618
1090.038,833.3705,721.2489,606.7683
1095.144,833.6159,721.708,607.3685
1100.07,833.8546,722.1545,607.9521
1105,834.0952,722.6043,608.5399
1110.11,834.3334,723.0498,609.1212
1115.04,834.5694,723.4906,609.6966
1120.15,834.8029,723.9266,610.2658
1125.08,835.0303,724.3506,610.8192
1130.01,835.2592,724.7778,611.3767
1135.11,835.4862,725.2006,611.9282
1140.04,835.7105,725.6192,612.474
1145.15,835.933,726.0335,613.0137
1150.08,836.1492,726.4362,613.5387
1155.01,836.3671,726.8418,614.0672
1160.11,836.583,727.2434,614.5902
1165.04,836.7967,727.641,615.1077
1170.149,837.0084,728.0344,615.6196
1175.079,837.214,728.4169,616.1174
1180.01,837.4216,728.802,616.6186
1185.11,837.6269,729.1835,617.1146
1190.04,837.8302,729.561,617.6052
1195.15,838.0316,729.9346,618.091
1200.0,838.2256,730.2943,618.5587

File: BUW-FZJ_PMMA01_Gasification_q50_Mass_R3.csv
Time,Mass
[s],[g]
0.0,26.9794
2.1128,26.9794
4.0496,26.9792
6.1624,26.9777
8.0991,26.9723
10.0359,26.9599
12.1487,26.9447
14.0855,26.9311
16.0222,26.9163
18.135,26.8999
20.0718,26.8818
22.0085,26.8595
24.1213,26.8329
26.0581,26.8028
28.1709,26.7642
30.1077,26.7234
32.0444,26.6748
34.1572,26.6203
36.094,26.5626
38.0307,26.4967
40.1435,26.4254
42.0803,26.3523
44.017,26.2713
46.1299,26.1858
48.0666,26.1002
50.0034,26.0069
52.1162,25.91
54.0529,25.81
56.1657,25.7069
58.1025,25.6057
60.0392,25.4975
62.1521,25.3869
64.0888,25.279
66.0256,25.1643
68.1384,25.0476
70.0751,24.9345
72.0119,24.8146
74.1247,24.6931
76.0614,24.5756
78.1743,24.4461
80.111,24.3261
82.0478,24.1996
84.1606,24.0719
86.0973,23.9488
88.0341,23.8192
90.1469,23.6885
92.0837,23.5628
94.0204,23.4305
96.1332,23.2973
98.07,23.1693
100.0067,23.0347
102.1195,22.8993
104.0563,22.7633
106.1691,22.6267
108.1059,22.4954
110.0426,22.3575
112.1554,22.2191
114.0922,22.0861
116.0289,21.9466
118.1417,21.8066
120.0785,21.6721
122.0152,21.5311
124.1281,21.3896
126.0648,21.2538
128.0016,21.1114
130.1144,20.9686
132.0511,20.8253
134.1639,20.6816
136.1007,20.5438
138.0374,20.3994
140.1503,20.2546
142.087,20.1158
144.0238,19.9703
146.1366,19.8244
148.0733,19.6846
150.0101,19.5381
152.1229,19.3913
154.0596,19.2506
156.1725,19.0968
158.1092,18.9555
160.046,18.8076
162.1588,18.6593
164.0955,18.5173
166.0323,18.3685
168.1451,18.2195
170.0818,18.0767
172.0186,17.9272
174.1314,17.7774
176.0682,17.634
178.0049,17.4838
180.1177,17.3334
182.0545,17.1827
184.1673,17.0319
186.104,16.8874
188.0408,16.7361
190.1536,16.5847
192.0904,16.4396
194.0271,16.2878
196.1399,16.1357
198.0767,15.9901
200.0134,15.8377
202.1263,15.6851
204.063,15.539
206.1758,15.3794
208.1126,15.2329
210.0493,15.0796
212.1621,14.9261
214.0989,14.7792
216.0356,14.6253
218.1485,14.4713
220.0852,14.3238
222.022,14.1694
224.1348,14.0149
226.0715,13.8669
228.0083,13.7121
230.1211,13.557
232.0578,13.4086
234.1707,13.2464
236.1074,13.0976
238.0442,12.9419
240.157,12.786
242.0937,12.6367
244.0305,12.4804
246.1433,12.324
248.08,12.1742
250.0168,12.0174
252.1296,11.8604
254.0664,11.7101
256.0031,11.5528
258.1159,11.3952
260.0527,11.2375
262.1655,11.0796
264.1023,10.9283
266.039,10.7698
268.1518,10.611
270.0886,10.4586
272.0253,10.2986
274.1381,10.1376
276.0749,9.9825
278.0116,9.819
280.1245,9.6539
282.0612,9.4941
284.174,9.3176
286.1108,9.1535
288.0475,8.9792
290.1603,8.8017
292.0971,8.6285
294.0338,8.4432
296.1467,8.2542
298.0834,8.0697
300.0202,7.873
302.133,7.6724
304.0697,7.4772
306.0065,7.27
308.1193,7.06
310.056,6.8477
312.1689,6.6333
314.1056,6.4268
316.0424,6.2096
318.1552,5.9913
320.0919,5.7819
322.0287,5.5623
324.1415,5.3425
326.0783,5.1321
328.015,4.9121
330.1278,4.6923
332.0646,4.4824
334.0013,4.2633
336.1141,4.0448
338.0509,3.8271
340.1637,3.6103
342.1005,3.4038
344.0372,3.1891
346.15,2.9757
348.0868,2.7731
350.0235,2.5629
352.1363,2.3545
354.0731,2.1572
356.0098,1.9531
358.1226,1.7518
360.0594,1.5617
362.1722,1.3577
364.109,1.1741
366.0457,0.9863
368.1585,0.8032
370.0953,0.6335
372.032,0.4628
374.1449,0.3014
376.0816,0.1606
378.0184,0.0418
380.1312,0.0002
382.0679,0.0
384.0047,0.0
386.1175,0.0
388.0542,0.0
390.1671,0.0
392.1038,0.0
394.0406,0.0
396.1534,0.0
398.0901,0.0
400.0269,0.0
402.1397,0.0
404.0764,0.0
406.0132,0.0
408.126,0.0
410.0628,0.0
412.1756,0.0
414.1123,0.0
416.0491,0.0
418.1619,0.0
420.0986,0.0
422.0354,0.0
424.1482,0.0
426.085,0.0
428.0217,0.0
430.1345,0.0
432.0713,0.0
434.008,0.0
436.1208,0.0
438.0576,0.0
440.1704,0.0
442.1072,0.0
444.0439,0.0
446.1567,0.0
448.0935,0.0
450.0302,0.0
452.1431,0.0
454.0798,0.0
456.0166,0.0
458.1294,0.0
460.0661,0.0
462.0029,0.0
464.1157,0.0
466.0524,0.0
468.1653,0.0
470.102,0.0
472.0388,0.0
474.1516,0.0
476.0883,0.0
478.0251,0.0
480.1379,0.0
482.0746,0.0
484.0114,0.0
486.1242,0.0
488.061,0.0
490.1738,0.0
492.1105,0.0
494.0473,0.0
496.1601,0.0
498.0968,0.0
500.0,0.0

File: BUW-FZJ_PMMA01_Gasification_q50_Mass_R4.csv
Time,Mass
[s],[g]
0.0,25.8362
2.112818,25.8362
4.04957,25.836
6.16239,25.8345
8.09914,25.8291
10.0359,25.8167
12.1487,25.8015
14.0855,25.7879
16.0222,25.7731
18.135,25.7567
20.0718,25.7386
22.0085,25.7163
24.1213,25.6897
26.0581,25.6595
28.1709,25.621
30.1077,25.5802
32.0444,25.5316
34.1572,25.477
36.094,25.4193
38.0307,25.3534
40.1435,25.282
42.0803,25.209
44.017,25.128
46.12986,25.0424
48.06661,24.9568
50.00336,24.8635
52.1162,24.7666
54.0529,24.6665
56.1657,24.5633
58.1025,24.4621
60.0392,24.3538
62.1521,24.2431
64.0888,24.1351
66.0256,24.0202
68.1384,23.9035
70.0751,23.7901
72.0119,23.6701
74.1247,23.5484
76.0614,23.4308
78.1743,23.301
80.111,23.1808
82.0478,23.054
84.1606,22.926
86.0973,22.8026
88.0341,22.6726
90.1469,22.5416
92.0837,22.4155
94.0204,22.2828
96.13322,22.1493
98.06997,22.0208
100.007,21.8857
102.12,21.7499
104.056,21.6134
106.169,21.4763
108.106,21.3445
110.043,21.2061
112.155,21.0671
114.092,20.9336
116.029,20.7934
118.142,20.6528
120.078,20.5177
122.015,20.3761
124.128,20.2339
126.065,20.0975
128.002,19.9544
130.114,19.8109
132.051,19.6669
134.164,19.5226
136.101,19.3841
138.037,19.239
140.15,19.0934
142.087,18.9538
144.024,18.8076
146.137,18.661
148.073,18.5204
150.01,18.3731
152.1229,18.2255
154.06,18.084
156.172,17.9294
158.109,17.7873
160.046,17.6385
162.159,17.4894
164.096,17.34655
166.032,17.1969
168.1451,17.047
170.082,16.9034
172.0186,16.753
174.131,16.6024
176.068,16.4581
178.005,16.307
180.118,16.1556
182.054,16.004
184.1673,15.8522
186.104,15.7068
188.0408,15.5546
190.154,15.4021
192.09,15.2561
194.027,15.1032
196.14,14.9501
198.077,14.8035
200.013,14.65
202.126,14.4962
204.063,14.349
206.176,14.1882
208.113,14.0406
210.049,13.8861
212.162,13.7314
214.099,13.5832
216.036,13.4281
218.148,13.2728
220.085,13.1241
222.022,12.96837
224.135,12.8125
226.072,12.66316
228.008,12.5069
230.1211,12.3504
232.058,12.20052
234.171,12.0368
236.107,11.8866
238.044,11.7293
240.157,11.5719
242.094,11.4211
244.03,11.2633
246.1433,11.1053
248.08,10.9539
250.0168,10.7953
252.13,10.6365
254.066,10.4841
256.003,10.3243
258.116,10.1638
260.053,10.00231
262.1655,9.83945
264.102,9.682204
266.039,9.51607
268.152,9.347859
270.089,9.18479
272.025,9.01174
274.138,8.83568
276.075,8.66399
278.012,8.4805
280.124,8.2927
282.061,8.10953
284.174,7.905467
286.111,7.71461
288.048,7.51144
290.16,7.30487
292.097,7.10452
294.034,6.89259
296.147,6.678494
298.083,6.472064
300.02,6.25491
302.133,6.0366
304.07,5.82702
306.006,5.60731
308.1193,5.38723
310.056,5.16697
312.169,4.94667
314.106,4.7361
316.042,4.51622
318.155,4.29677
320.092,4.08743
322.029,3.86923
324.1415,3.65191
326.078,3.44498
328.015,3.22974
330.128,3.01587
332.065,2.81265
334.001,2.60183
336.114,2.39289
338.051,2.18598
340.1637,1.98129
342.1,1.78797
344.0372,1.5886
346.15,1.39228
348.087,1.20778
350.024,1.01897
352.136,0.834705
354.073,0.66367
356.01,0.49151
358.123,0.327847
360.0594,0.184141
362.172,0.053834
364.109,0.001035
366.046,0.0
368.159,0.0
370.095,0.0
372.032,0.0
374.145,0.0
376.082,0.0
378.018,0.0
380.131,0.0
382.068,0.0
384.005,0.0
386.117,0.0
388.054,0.0
390.167,0.0
392.104,0.0
394.041,0.0
396.153,0.0
398.09,0.0
400.027,0.0
402.1397,0.0
404.076,0.0
406.0132,0.0
408.126,0.0
410.063,0.0
412.176,0.0
414.112,0.0
416.049,0.0
418.1619,0.0
420.099,0.0
422.0354,0.0
424.148,0.0
426.085,0.0
428.022,0.0
430.135,0.0
432.071,0.0
434.008,0.0
436.121,0.0
438.0576,0.0
440.17,0.0
442.107,0.0
444.044,0.0
446.157,0.0
448.093,0.0
450.03,0.0
452.143,0.0
454.08,0.0
456.017,0.0
458.129,0.0
460.066,0.0
462.003,0.0
464.116,0.0
466.052,0.0
468.165,0.0
470.102,0.0
472.039,0.0
474.152,0.0
476.088,0.0
478.025,0.0
480.1379,0.0
482.075,0.0
484.0114,0.0
486.124,0.0
488.061,0.0
490.174,0.0
492.111,0.0
494.047,0.0
496.1601,0.0
498.097,0.0
500.0,0.0

File: BUW-FZJ_PMMA01_Gasification_q50_Mass_R5.csv
Time,Mass
[s],[g]
0.0,28.3513
2.112818,28.3513
4.04957,28.351
6.16239,28.3495
8.09914,28.3441
10.0359,28.3317
12.1487,28.3165
14.0855,28.3029
16.0222,28.2882
18.135,28.2718
20.0718,28.2536
22.0085,28.2313
24.1213,28.2047
26.0581,28.1746
28.1709,28.1361
30.1077,28.0952
32.0444,28.0467
34.1572,27.9922
36.094,27.9345
38.0307,27.8686
40.1435,27.7973
42.0803,27.7242
44.017,27.6432
46.12986,27.5577
48.06661,27.472
50.00336,27.3788
52.1162,27.282
54.0529,27.1819
56.1657,27.0789
58.1025,26.9778
60.0392,26.8696
62.1521,26.7591
64.0888,26.6513
66.0256,26.5367
68.1384,26.4202
70.0751,26.3071
72.0119,26.1873
74.1247,26.066
76.0614,25.9487
78.1743,25.8194
80.111,25.6996
82.0478,25.5733
84.1606,25.4459
86.0973,25.3231
88.0341,25.1937
90.1469,25.0634
92.0837,24.938
94.0204,24.806
96.13322,24.6733
98.06997,24.5457
100.007,24.4115
102.12,24.2766
104.056,24.1411
106.169,24.0049
108.106,23.8741
110.043,23.7368
112.155,23.5989
114.092,23.4666
116.029,23.3276
118.142,23.1882
120.078,23.0544
122.015,22.914
124.128,22.7731
126.065,22.638
128.002,22.4963
130.114,22.3542
132.051,22.2117
134.164,22.0688
136.101,21.9317
138.037,21.7881
140.15,21.6441
142.087,21.506
144.024,21.3613
146.137,21.2163
148.073,21.0773
150.01,20.9317
152.1229,20.7857
154.06,20.6458
156.172,20.4929
158.109,20.3525
160.046,20.2054
162.159,20.0581
164.096,19.9169
166.032,19.769
168.1451,19.6209
170.082,19.479
172.0186,19.3305
174.131,19.1817
176.068,19.0391
178.005,18.8899
180.118,18.7405
182.054,18.5908
184.1673,18.441
186.104,18.2974
188.0408,18.1472
190.154,17.9968
192.09,17.8527
194.027,17.7019
196.14,17.551
198.077,17.4064
200.013,17.2551
202.126,17.1036
204.063,16.9586
206.176,16.8002
208.113,16.6548
210.049,16.5027
212.162,16.3505
214.099,16.2047
216.036,16.0521
218.148,15.8993
220.085,15.7531
222.022,15.6001
224.135,15.447
226.072,15.3003
228.008,15.1468
230.1211,14.9932
232.058,14.8462
234.171,14.6856
236.107,14.5382
238.044,14.384
240.157,14.2297
242.094,14.0819
244.03,13.9273
246.1433,13.7725
248.08,13.6243
250.0168,13.4692
252.13,13.314
254.066,13.1653
256.003,13.0098
258.116,12.854
260.053,12.6981
262.1655,12.5421
264.102,12.3927
266.039,12.2363
268.152,12.07977
270.089,11.9299
272.025,11.773
274.138,11.6159
276.075,11.4655
278.012,11.3081
280.124,11.1504
282.061,10.9994
284.174,10.8342
286.111,10.68246
288.048,10.5232
290.16,10.3632
292.097,10.2093
294.034,10.0471
296.147,9.88365
298.083,9.725739
300.02,9.558885
302.133,9.38991
304.07,9.22607
306.006,9.05219
308.1193,8.87521
310.056,8.69465
312.169,8.50993
314.106,8.32994
316.042,8.13805
318.155,7.9422
320.092,7.75131
322.029,7.54828
324.1415,7.34203
326.078,7.14209
328.015,6.93066
330.128,6.71717
332.065,6.51134
334.001,6.29482
336.114,6.07718
338.051,5.85872
340.1637,5.63968
342.1,5.42979
344.0372,5.21015
346.15,4.9905
348.087,4.780481
350.024,4.56118
352.136,4.34227
354.073,4.13338
356.01,3.91569
358.123,3.69877
360.0594,3.49219
362.172,3.26802
364.109,3.063685
366.046,2.85155
368.159,2.64099
370.095,2.4412
372.032,2.23436
374.145,2.02978
376.082,1.83629
378.018,1.63669
380.131,1.44026
382.068,1.25556
384.005,1.066
386.117,0.881008
388.054,0.701348
390.167,0.52825
392.104,0.370331
394.041,0.216349
396.153,0.083183
398.09,0.006361
400.027,3.46945e-15
402.1397,3.46945e-15
404.076,3.46945e-15
406.0132,3.46945e-15
408.126,3.46945e-15
410.063,3.46945e-15
412.176,3.46945e-15
414.112,3.46945e-15
416.049,3.46945e-15
418.1619,3.46945e-15
420.099,3.46945e-15
422.0354,3.46945e-15
424.148,3.46945e-15
426.085,3.46945e-15
428.022,3.46945e-15
430.135,3.46945e-15
432.071,3.46945e-15
434.008,3.46945e-15
436.121,3.46945e-15
438.0576,3.46945e-15
440.17,3.46945e-15
442.107,3.46945e-15
444.044,3.46945e-15
446.157,3.46945e-15
448.093,3.46945e-15
450.03,3.46945e-15
452.143,3.46945e-15
454.08,3.46945e-15
456.017,3.46945e-15
458.129,3.46945e-15
460.066,3.46945e-15
462.003,3.46945e-15
464.116,3.46945e-15
466.052,3.46945e-15
468.165,3.46945e-15
470.102,3.46945e-15
472.039,3.46945e-15
474.152,3.46945e-15
476.088,3.46945e-15
478.025,3.46945e-15
480.1379,3.46945e-15
482.075,3.46945e-15
484.0114,3.46945e-15
486.124,3.46945e-15
488.061,3.46945e-15
490.174,3.46945e-15
492.111,3.46945e-15
494.047,3.46945e-15
496.1601,3.46945e-15
498.097,3.46945e-15
500.0,3.46945e-15