Folder: matl-db/PMMA/Validation_Results/BUW-FZJ (part 10)

File: BUW-FZJ_PMMA01_Gasification_q50_MLR_R3.csv
Time,MLR_CH4,MLR_CO2,MLR_Combined
[s],[g/m2/s],[g/m2/s],[g/m2/s]
0.0,0.0,0.0,0.0
2.112818,0.000671251,0.00302894,0.00370019
4.04957,0.0339757,0.0314052,0.0653808
6.16239,0.258467,0.104407,0.362874
8.09914,0.878638,0.22219,1.10083
10.0359,1.550137,0.371725,1.92186
12.1487,1.37868,0.4945401,1.87322
14.0855,1.2771,0.55357,1.83067
16.0222,1.38867,0.58523,1.9739
18.135,1.60476,0.635469,2.24022
20.0718,1.88653,0.722236,2.60876
22.0085,2.24732,0.857003,3.10432
24.1213,2.66267,1.0344,3.69707
26.0581,3.09935,1.24003,4.33938
28.1709,3.59948,1.4958,5.09528
30.1077,4.06644,1.75319,5.81964
32.0444,4.55328,2.03997,6.59325
34.1572,5.02217,2.336347,7.35852
36.094,5.44725,2.62213,8.06938
38.0307,5.86692,2.92269,8.7896
40.1435,6.253697,3.21786,9.47156
42.0803,6.59146,3.49284,10.0843
44.017,6.91026,3.77027,10.6805
46.12986,7.19587,4.0361,11.232
48.06661,7.442719,4.28188,11.7246
50.00336,7.6723,4.52733,12.1996
52.1162,7.87656,4.76188,12.6384
54.0529,8.05739,4.98554,13.0429
56.1657,8.21147,5.19423,13.4057
58.1025,8.34514,5.388429,13.7336
60.0392,8.47104,5.584733,14.0558
62.1521,8.57554,5.76497,14.3405
64.0888,8.66841,5.93682,14.6052
66.0256,8.75164,6.10409,14.8557
68.1384,8.82123,6.26332,15.0845
70.0751,8.88439,6.41295,15.2973
72.0119,8.93726,6.55786,15.4951
74.1247,8.98697,6.70174,15.6887
76.0614,9.02574,6.82801,15.8538
78.1743,9.06569,6.96796,16.0336
80.111,9.09364,7.08242,16.1761
82.0478,9.12288,7.20587,16.3288
84.1606,9.14571,7.31781,16.4635
86.0973,9.166753,7.42706,16.5938
88.0341,9.18426,7.53109,16.7153
90.1469,9.199294,7.63385,16.8331
92.0837,9.21454,7.729048,16.9436
94.0204,9.2243,7.82194,17.0462
96.13322,9.23799,7.91586,17.1538
98.06997,9.24424,7.99736,17.2416
100.007,9.255041,8.08398,17.339
102.12,9.26178,8.16556,17.4273
104.056,9.2686,8.2431,17.5117
106.169,9.27587,8.31949,17.5954
108.106,9.28177,8.39055,17.6723
110.043,9.28589,8.45755,17.7434
112.155,9.29322,8.52831,17.8215
114.092,9.29743,8.59053,17.888
116.029,9.30302,8.65261,17.9556
118.142,9.30914,8.71659,18.0257
120.078,9.31466,8.77125,18.0859
122.015,9.31905,8.82762,18.1467
124.128,9.32486,8.88189,18.2067
126.065,9.33133,8.933958,18.2653
128.002,9.33683,8.98455,18.3214
130.114,9.342747,9.03352,18.3763
132.051,9.34824,9.08133,18.4296
134.164,9.35456,9.12576,18.4803
136.101,9.36097,9.169107,18.5301
138.037,9.36795,9.21316,18.5811
140.15,9.37389,9.25162,18.6255
142.087,9.38048,9.289681,18.6702
144.024,9.38684,9.32544,18.7123
146.137,9.39452,9.364618,18.7591
148.073,9.40107,9.39624,18.7973
150.01,9.407976,9.43157,18.8395
152.1229,9.41554,9.46356,18.8791
154.06,9.42259,9.49418,18.9168
156.172,9.43086,9.52584,18.9567
158.109,9.43791,9.55405,18.992
160.046,9.44531,9.58099,19.0263
162.159,9.454,9.609099,19.0631
164.096,9.46191,9.633573,19.0955
166.032,9.4702,9.65868,19.1289
168.1451,9.47915,9.68324,19.1624
170.082,9.48676,9.70488,19.1916
172.0186,9.49539,9.728047,19.2234
174.131,9.50377,9.74938,19.2532
176.068,9.51211,9.7693,19.2814
178.005,9.52083,9.78998,19.3108
180.118,9.52892,9.809117,19.338
182.054,9.53808,9.82803,19.3661
184.1673,9.54766,9.84654,19.3942
186.104,9.55641,9.86369,19.4201
188.0408,9.56598,9.8797,19.4457
190.154,9.57539,9.89561,19.471
192.09,9.58464,9.91055,19.4952
194.027,9.59446,9.92578,19.5202
196.14,9.604207,9.94068,19.5449
198.077,9.61342,9.95421,19.5676
200.013,9.6236,9.96892,19.5925
202.126,9.63403,9.982194,19.6162
204.063,9.64226,9.99185,19.6341
206.176,9.65332,10.0103,19.6636
208.113,9.66572,10.0329,19.6986
210.049,9.67182,10.0257,19.6976
212.162,9.68655,10.0412,19.7277
214.099,9.69589,10.0548,19.7507
216.036,9.70904,10.0712,19.7802
218.148,9.71745,10.0802,19.7976
220.085,9.72908,10.0924,19.8215
222.022,9.7401,10.102,19.8421
224.135,9.75057,10.1121,19.8627
226.072,9.76219,10.1234,19.8856
228.008,9.77396,10.1345,19.9085
230.1211,9.78496,10.1455,19.9305
232.058,9.79528,10.1563,19.9516
234.171,9.80662,10.1683,19.975
236.107,9.81679,10.1794,19.9962
238.044,9.82757,10.1919,20.0194
240.157,9.83799,10.2048,20.0428
242.094,9.847234,10.2175,20.0648
244.03,9.85625,10.2309,20.0871
246.1433,9.86463,10.2456,20.1102
248.08,9.87168,10.2604,20.1321
250.0168,9.87826,10.2766,20.1548
252.13,9.88388,10.2947,20.1785
254.066,9.88756,10.3127,20.2003
256.003,9.89044,10.3335,20.224
258.116,9.89235,10.356,20.2483
260.053,9.89379,10.3812,20.275
262.1655,9.89602,10.4088,20.3048
264.102,9.89989,10.4383,20.3382
266.039,9.90858,10.4724,20.381
268.152,9.92486,10.5107,20.4355
270.089,9.95045,10.5522,20.50264
272.025,9.99453,10.6081,20.6027
274.138,10.0655,10.6841,20.7496
276.075,10.1497,10.7556,20.9053
278.012,10.2578,10.8409,21.0987
280.124,10.3882,10.9404,21.3286
282.061,10.5283,11.042,21.5703
284.174,10.7023,11.17228,21.8746
286.111,10.8821,11.3089,22.191
288.048,11.0931,11.4734,22.5665
290.16,11.3384,11.6671,23.0055
292.097,11.6098,11.889,23.4988
294.034,11.91463,12.1338,24.0485
296.147,12.1701,12.34187,24.512
298.083,12.4207,12.58645,25.0071
300.02,12.6636,12.8414,25.505
302.133,12.8838,13.1043,25.9881
304.07,13.0644,13.3435,26.40793
306.006,13.2169,13.577,26.7939
308.1193,13.3292,13.7936,27.1227
310.056,13.4115,14.0027,27.4142
312.169,13.4545,14.1878,27.6423
314.106,13.4644,14.3515,27.8159
316.042,13.4537,14.528,27.9817
318.155,13.4082,14.674,28.0823
320.092,13.3467,14.8257,28.1724
322.029,13.2594,14.9751,28.2346
324.1415,13.1444,15.1099,28.2544
326.078,13.0209,15.2476,28.2686
328.015,12.8687,15.3828,28.2515
330.128,12.69899,15.5271,28.2261
332.065,12.5191,15.6658,28.1849
334.001,12.3059,15.7949,28.1008
336.114,12.0819,15.9507,28.0326
338.051,11.8316,16.0877,27.9193
340.1637,11.5631,16.24,27.8031
342.1,11.2905,16.3876,27.6781
344.0372,10.9772,16.5236,27.5007
346.15,10.6487,16.6811,27.3298
348.087,10.3135,16.8253,27.1388
350.024,9.93432,16.9499,26.8842
352.136,9.54592,17.1119,26.6578
354.073,9.1502,17.248,26.3982
356.01,8.70617,17.3509,26.0571
358.123,8.24155,17.4587,25.7002
360.0594,7.7901,17.5719,25.362
362.172,7.27566,17.672,24.9476
364.109,6.75997,17.6501,24.4101
366.046,6.20194,17.5809,23.7828
368.159,5.65457,17.5562,23.2107
370.095,5.09766,17.3783,22.476
372.032,4.5028,17.05562,21.5584
374.145,3.86951,16.3404,20.2099
376.082,3.18934,14.70825,17.8976
378.018,2.29707,9.96137,12.2584
380.131,0.299867,0.0691387,0.369006
382.068,0.0,0.0,0.0
384.005,0.0,0.0,0.0
386.117,0.0,0.0,0.0
388.054,0.0,0.0,0.0
390.167,0.0,0.0,0.0
392.104,0.0,0.0,0.0
394.041,0.0,0.0,0.0
396.153,0.0,0.0,0.0
398.09,0.0,0.0,0.0
400.027,0.0,0.0,0.0
402.1397,0.0,0.0,0.0
404.076,0.0,0.0,0.0
406.0132,0.0,0.0,0.0
408.126,0.0,0.0,0.0
410.063,0.0,0.0,0.0
412.176,0.0,0.0,0.0
414.112,0.0,0.0,0.0
416.049,0.0,0.0,0.0
418.1619,0.0,0.0,0.0
420.099,0.0,0.0,0.0
422.0354,0.0,0.0,0.0
424.148,0.0,0.0,0.0
426.085,0.0,0.0,0.0
428.022,0.0,0.0,0.0
430.135,0.0,0.0,0.0
432.071,0.0,0.0,0.0
434.008,0.0,0.0,0.0
436.121,0.0,0.0,0.0
438.0576,0.0,0.0,0.0
440.17,0.0,0.0,0.0
442.107,0.0,0.0,0.0
444.044,0.0,0.0,0.0
446.157,0.0,0.0,0.0
448.093,0.0,0.0,0.0
450.03,0.0,0.0,0.0
452.143,0.0,0.0,0.0
454.08,0.0,0.0,0.0
456.017,0.0,0.0,0.0
458.129,0.0,0.0,0.0
460.066,0.0,0.0,0.0
462.003,0.0,0.0,0.0
464.116,0.0,0.0,0.0
466.052,0.0,0.0,0.0
468.165,0.0,0.0,0.0
470.102,0.0,0.0,0.0
472.039,0.0,0.0,0.0
474.152,0.0,0.0,0.0
476.088,0.0,0.0,0.0
478.025,0.0,0.0,0.0
480.1379,0.0,0.0,0.0
482.075,0.0,0.0,0.0
484.0114,0.0,0.0,0.0
486.124,0.0,0.0,0.0
488.061,0.0,0.0,0.0
490.174,0.0,0.0,0.0
492.111,0.0,0.0,0.0
494.047,0.0,0.0,0.0
496.1601,0.0,0.0,0.0
498.097,0.0,0.0,0.0
500.0,0.0,0.0,0.0

File: BUW-FZJ_PMMA01_Gasification_q50_MLR_R4.csv
Time,MLR_CH4,MLR_CO2,MLR_Combined
[s],[g/m2/s],[g/m2/s],[g/m2/s]
0.0,0.0,0.0,0.0
2.112818,0.000671642,0.00301882,0.00369046
4.04957,0.0339729,0.0313906,0.0653635
6.16239,0.258455,0.104383,0.362838
8.09914,0.878514,0.222151,1.10067
10.0359,1.54998,0.371687,1.92167
12.1487,1.3786,0.494506,1.87311
14.0855,1.27759,0.5535251,1.831115
16.0222,1.38867,0.585297,1.97396
18.135,1.6045,0.635355,2.23986
20.0718,1.88688,0.722617,2.6095
22.0085,2.24739,0.857134,3.10452
24.1213,2.66389,1.03499,3.69888
26.0581,3.10047,1.24073,4.341194
28.1709,3.59809,1.49503,5.09312
30.1077,4.066311,1.75326,5.81957
32.0444,4.55357,2.04016,6.59373
34.1572,5.02339,2.33722,7.36061
36.094,5.45109,2.6247,8.07579
38.0307,5.86989,2.92453,8.79442
40.1435,6.25436,3.21824,9.4726
42.0803,6.59178,3.4929,10.0847
44.017,6.91238,3.77172,10.6841
46.12986,7.19816,4.03768,11.2358
48.06661,7.44394,4.28259,11.7265
50.00336,7.67396,4.5282,12.2022
52.1162,7.87919,4.76389,12.6431
54.0529,8.06062,4.98798,13.0486
56.1657,8.21849,5.19981,13.4183
58.1025,8.34908,5.39075,13.7398
60.0392,8.47673,5.588926,14.0657
62.1521,8.58445,5.771902,14.3564
64.0888,8.67481,5.94041,14.6152
66.0256,8.761412,6.11278,14.8742
68.1384,8.83324,6.27156,15.1048
70.0751,8.89681,6.42374,15.3205
72.0119,8.9509,6.56775,15.5186
74.1247,9.00021,6.71146,15.7117
76.0614,9.04215,6.84148,15.8836
78.1743,9.08116,6.97835,16.0595
80.111,9.11332,7.0996,16.2129
82.0478,9.14236,7.21946,16.3618
84.1606,9.16957,7.33866,16.5082
86.0973,9.18894,7.44287,16.6318
88.0341,9.20829,7.55132,16.7596
90.1469,9.22627,7.65502,16.8813
92.0837,9.23879,7.74824,16.987
94.0204,9.25576,7.84756,17.1033
96.13322,9.26481,7.9371,17.2019
98.06997,9.277453,8.02433,17.3018
100.007,9.28747,8.11157,17.399
102.12,9.29544,8.19275,17.4882
104.056,9.304248,8.27275,17.577
106.169,9.31292,8.35164,17.6646
108.106,9.31774,8.41743,17.7352
110.043,9.32552,8.49257,17.8181
112.155,9.333184,8.56027,17.8935
114.092,9.3392,8.62462,17.9638
116.029,9.34588,8.68892,18.0348
118.142,9.35166,8.75042,18.1021
120.078,9.35928,8.80865,18.1679
122.015,9.36575,8.86627,18.232
124.128,9.37199,8.9207,18.2927
126.065,9.37805,8.972661,18.3507
128.002,9.38496,9.02435,18.4093
130.114,9.39126,9.07354,18.4648
132.051,9.39747,9.12139,18.5189
134.164,9.404869,9.16906,18.5739
136.101,9.4109,9.20989,18.6208
138.037,9.41944,9.25447,18.6739
140.15,9.42703,9.29403,18.7211
142.087,9.43406,9.33396,18.768
144.024,9.44222,9.37197,18.8142
146.137,9.44937,9.4089,18.8583
148.073,9.45691,9.44225,18.8992
150.01,9.46493,9.47772,18.9426
152.1229,9.47296,9.51009,18.9831
154.06,9.48043,9.54064,19.0211
156.172,9.4889,9.5729,19.0618
158.109,9.49714,9.60078,19.0979
160.046,9.50655,9.62952,19.1361
162.159,9.51538,9.65634,19.1717
164.096,9.52358,9.681158,19.2047
166.032,9.53251,9.70673,19.2392
168.1451,9.54154,9.73061,19.2722
170.082,9.55052,9.75343,19.3039
172.0186,9.56039,9.776897,19.3373
174.131,9.56998,9.7996,19.3696
176.068,9.57904,9.81984,19.3989
178.005,9.58897,9.84053,19.4295
180.118,9.598998,9.86096,19.46
182.054,9.60927,9.879407,19.4887
184.1673,9.61971,9.89735,19.5171
186.104,9.62972,9.91392,19.5436
188.0408,9.64066,9.93144,19.5721
190.154,9.65157,9.94836,19.5999
192.09,9.66227,9.96445,19.6267
194.027,9.67454,9.981735,19.6563
196.14,9.68442,9.99408,19.6785
198.077,9.69538,10.0116,19.7069
200.013,9.70934,10.0371,19.7465
202.126,9.7168,10.0384,19.7552
204.063,9.73094,10.0492,19.7802
206.176,9.74315,10.0681,19.8112
208.113,9.75635,10.0851,19.8415
210.049,9.76642,10.0966,19.8631
212.162,9.77916,10.1113,19.8905
214.099,9.79139,10.1236,19.915
216.036,9.80287,10.1358,19.9387
218.148,9.81492,10.1493,19.9643
220.085,9.82672,10.1629,19.9896
222.022,9.83901,10.1775,20.0165
224.135,9.85065,10.1919,20.0425
226.072,9.8609,10.2058,20.0667
228.008,9.87132,10.2206,20.0919
230.1211,9.88076,10.2362,20.117
232.058,9.889173,10.2515,20.1407
234.171,9.89748,10.2691,20.1666
236.107,9.90401,10.2865,20.1905
238.044,9.90947,10.3058,20.2153
240.157,9.91335,10.3261,20.2394
242.094,9.91601,10.3479,20.2639
244.03,9.91763,10.3721,20.2897
246.1433,9.91899,10.3992,20.3182
248.08,9.92135,10.4275,20.3488
250.0168,9.926088,10.4605,20.3866
252.13,9.93655,10.4966,20.4332
254.066,9.95491,10.5356,20.4905
256.003,9.98621,10.58217,20.5684
258.116,10.0348,10.6379,20.6726
260.053,10.1116,10.7127,20.82436
262.1655,10.2128,10.7988,21.0116
264.102,10.3283,10.8861,21.2143
266.039,10.4691,10.9923,21.4615
268.152,10.6303,11.1115,21.7418
270.089,10.8028,11.2423,22.0452
272.025,11.0053,11.3954,22.4007
274.138,11.2376,11.5764,22.814
276.075,11.49496,11.7834,23.2783
278.012,11.801,12.0387,23.8397
280.124,12.085,12.2539,24.3389
282.061,12.3398,12.4916,24.8314
284.174,12.6082,12.7661,25.3742
286.111,12.8292,13.0163,25.8455
288.048,13.0329,13.2786,26.3115
290.16,13.2003,13.5237,26.724
292.097,13.3218,13.7354,27.0572
294.034,13.4146,13.9513,27.3659
296.147,13.472,14.1489,27.6209
298.083,13.4916,14.3146,27.8062
300.02,13.4851,14.4884,27.9735
302.133,13.4529,14.6535,28.1064
304.07,13.3929,14.794,28.1869
306.006,13.312,14.9491,28.2611
308.1193,13.2024,15.0824,28.2848
310.056,13.0754,15.2288,28.3042
312.169,12.9308,15.3759,28.3067
314.106,12.7667,15.5006,28.2674
316.042,12.5844,15.6531,28.2375
318.155,12.3734,15.7807,28.1541
320.092,12.1587,15.9244,28.0831
322.029,11.9192,16.08243,28.0016
324.1415,11.6439,16.2048,27.8487
326.078,11.3752,16.3609,27.7361
328.015,11.0719,16.5114,27.5833
330.128,10.7365,16.6481,27.3846
332.065,10.4096,16.8058,27.2155
334.001,10.0395,16.9461,26.9856
336.114,9.6397,17.0771,26.7168
338.051,9.23268,17.23328,26.466
340.1637,8.79664,17.3528,26.1494
342.1,8.34825,17.4368,25.785
344.0372,7.87758,17.5679,25.4455
346.15,7.38569,17.6656,25.0513
348.087,6.88348,17.6874,24.5708
350.024,6.3264,17.6317,23.9581
352.136,5.7655,17.5697,23.3351
354.073,5.21399,17.4251,22.6391
356.01,4.62098,17.147,21.768
358.123,3.98424,16.4694,20.4537
360.0594,3.31644,15.066,18.3825
362.172,2.43994,10.894,13.3339
364.109,0.687804,0.71075,1.39855
366.046,0.0,0.0,0.0
368.159,0.0,0.0,0.0
370.095,0.0,0.0,0.0
372.032,0.0,0.0,0.0
374.145,0.0,0.0,0.0
376.082,0.0,0.0,0.0
378.018,0.0,0.0,0.0
380.131,0.0,0.0,0.0
382.068,0.0,0.0,0.0
384.005,0.0,0.0,0.0
386.117,0.0,0.0,0.0
388.054,0.0,0.0,0.0
390.167,0.0,0.0,0.0
392.104,0.0,0.0,0.0
394.041,0.0,0.0,0.0
396.153,0.0,0.0,0.0
398.09,0.0,0.0,0.0
400.027,0.0,0.0,0.0
402.1397,0.0,0.0,0.0
404.076,0.0,0.0,0.0
406.0132,0.0,0.0,0.0
408.126,0.0,0.0,0.0
410.063,0.0,0.0,0.0
412.176,0.0,0.0,0.0
414.112,0.0,0.0,0.0
416.049,0.0,0.0,0.0
418.1619,0.0,0.0,0.0
420.099,0.0,0.0,0.0
422.0354,0.0,0.0,0.0
424.148,0.0,0.0,0.0
426.085,0.0,0.0,0.0
428.022,0.0,0.0,0.0
430.135,0.0,0.0,0.0
432.071,0.0,0.0,0.0
434.008,0.0,0.0,0.0
436.121,0.0,0.0,0.0
438.0576,0.0,0.0,0.0
440.17,0.0,0.0,0.0
442.107,0.0,0.0,0.0
444.044,0.0,0.0,0.0
446.157,0.0,0.0,0.0
448.093,0.0,0.0,0.0
450.03,0.0,0.0,0.0
452.143,0.0,0.0,0.0
454.08,0.0,0.0,0.0
456.017,0.0,0.0,0.0
458.129,0.0,0.0,0.0
460.066,0.0,0.0,0.0
462.003,0.0,0.0,0.0
464.116,0.0,0.0,0.0
466.052,0.0,0.0,0.0
468.165,0.0,0.0,0.0
470.102,0.0,0.0,0.0
472.039,0.0,0.0,0.0
474.152,0.0,0.0,0.0
476.088,0.0,0.0,0.0
478.025,0.0,0.0,0.0
480.1379,0.0,0.0,0.0
482.075,0.0,0.0,0.0
484.0114,0.0,0.0,0.0
486.124,0.0,0.0,0.0
488.061,0.0,0.0,0.0
490.174,0.0,0.0,0.0
492.111,0.0,0.0,0.0
494.047,0.0,0.0,0.0
496.1601,0.0,0.0,0.0
498.097,0.0,0.0,0.0
500.0,0.0,0.0,0.0

File: BUW-FZJ_PMMA01_Gasification_q50_MLR_R5.csv
Time,MLR_CH4,MLR_CO2,MLR_Combined
[s],[g/m2/s],[g/m2/s],[g/m2/s]
0.0,0.0,0.0,0.0
2.112818,0.000671552,0.00304248,0.00371403
4.04957,0.0339786,0.031419,0.0653976
6.16239,0.2584627,0.104417,0.36288
8.09914,0.878605,0.222195,1.1008
10.0359,1.55013,0.371734,1.92187
12.1487,1.3787,0.494554,1.87326
14.0855,1.27709,0.553594,1.83069
16.0222,1.38859,0.585241,1.97383
18.135,1.60483,0.6354943,2.24032
20.0718,1.88671,0.722291,2.609
22.0085,2.24587,0.856507,3.10238
24.1213,2.66229,1.03439,3.69668
26.0581,3.09838,1.2397,4.33808
28.1709,3.59922,1.4957,5.09493
30.1077,4.066549,1.75324,5.81979
32.0444,4.55045,2.03812,6.588567
34.1572,5.02046,2.335293,7.35575
36.094,5.44831,2.62293,8.07124
38.0307,5.867326,2.92289,8.79021
40.1435,6.25266,3.21711,9.46977
42.0803,6.59046,3.49199,10.0824
44.017,6.91067,3.7706,10.6813
46.12986,7.19752,4.03754,11.2351
48.06661,7.44096,4.28075,11.7217
50.00336,7.67179,4.5271,12.1989
52.1162,7.87478,4.76087,12.6357
54.0529,8.05274,4.98204,13.0348
56.1657,8.207222,5.19141,13.3986
58.1025,8.34106,5.38539,13.7264
60.0392,8.46558,5.58046,14.046
62.1521,8.56977,5.7609,14.3307
64.0888,8.66153,5.93215,14.5937
66.0256,8.74215,6.096627,14.8388
68.1384,8.81422,6.25896,15.0732
70.0751,8.87448,6.405024,15.2795
72.0119,8.9271,6.55165,15.4788
74.1247,8.97453,6.69108,15.6656
76.0614,9.012276,6.81918,15.8315
78.1743,9.04962,6.95459,16.0042
80.111,9.07682,7.07079,16.1476
82.0478,9.10446,7.19053,16.295
84.1606,9.12642,7.30425,16.4307
86.0973,9.14576,7.40945,16.5552
88.0341,9.161045,7.51377,16.6748
90.1469,9.17706,7.616317,16.7934
92.0837,9.18595,7.706514,16.8925
94.0204,9.1995,7.80228,17.0018
96.13322,9.20505,7.88814,17.0932
98.06997,9.21645,7.97565,17.1921
100.007,9.22051,8.05574,17.2762
102.12,9.22929,8.13881,17.3681
104.056,9.23357,8.21558,17.4491
106.169,9.23976,8.28945,17.5292
108.106,9.24461,8.358879,17.6035
110.043,9.2484,8.42851,17.6769
112.155,9.2517,8.49323,17.7449
114.092,9.25672,8.55547,17.8122
116.029,9.25978,8.61896,17.8787
118.142,9.26565,8.67846,17.9441
120.078,9.26869,8.73414,18.0028
122.015,9.27361,8.79113,18.0647
124.128,9.27727,8.84239,18.1197
126.065,9.28279,8.89462,18.1774
128.002,9.28572,8.94082,18.2265
130.114,9.29204,8.99252,18.2846
132.051,9.29632,9.03754,18.3339
134.164,9.30211,9.08265,18.3848
136.101,9.30597,9.12412,18.4301
138.037,9.31163,9.16413,18.4758
140.15,9.31739,9.20562,18.523
142.087,9.32387,9.24345,18.5673
144.024,9.32954,9.2789,18.6084
146.137,9.33533,9.31546,18.6508
148.073,9.34115,9.34749,18.6886
150.01,9.34841,9.38151,18.7299
152.1229,9.35441,9.41335,18.7678
154.06,9.36202,9.44435,18.8064
156.172,9.368541,9.47411,18.8426
158.109,9.37566,9.502359,18.878
160.046,9.38295,9.5308,18.9137
162.159,9.38957,9.55713,18.9467
164.096,9.39692,9.58276,18.9797
166.032,9.40432,9.60604,19.0104
168.1451,9.41173,9.6301,19.0418
170.082,9.41932,9.65173,19.071
172.0186,9.42714,9.67444,19.1016
174.131,9.43539,9.69584,19.1312
176.068,9.44259,9.71485,19.1574
178.005,9.45057,9.73553,19.1861
180.118,9.45824,9.75447,19.2127
182.054,9.46618,9.77309,19.2393
184.1673,9.47432,9.79132,19.2656
186.104,9.48178,9.80723,19.289
188.0408,9.48975,9.82333,19.3131
190.154,9.498,9.840009,19.338
192.09,9.50591,9.85449,19.3604
194.027,9.51477,9.86914,19.3839
196.14,9.52301,9.88309,19.4061
198.077,9.53142,9.8961,19.4275
200.013,9.54033,9.90961,19.4499
202.126,9.54858,9.9224,19.471
204.063,9.55657,9.93407,19.4906
206.176,9.56532,9.94637,19.5117
208.113,9.57396,9.958285,19.5322
210.049,9.58302,9.96943,19.5525
212.162,9.59112,9.97752,19.5686
214.099,9.59976,9.9916,19.5914
216.036,9.61108,10.012,19.6231
218.148,9.6175,10.0131,19.6306
220.085,9.62646,10.0123,19.6388
222.022,9.63827,10.0314,19.6696
224.135,9.64698,10.0408,19.6877
226.072,9.65642,10.0532,19.7097
228.008,9.66527,10.0604,19.7257
230.1211,9.67436,10.0689,19.7433
232.058,9.68526,10.0783,19.7636
234.171,9.69491,10.0858,19.7807
236.107,9.70444,10.0946,19.7991
238.044,9.71571,10.1044,19.8201
240.157,9.72595,10.1129,19.8388
242.094,9.735145,10.1208,19.856
244.03,9.74567,10.1302,19.8759
246.1433,9.75629,10.1397,19.896
248.08,9.76629,10.1489,19.9151
250.0168,9.77676,10.1587,19.9355
252.13,9.78695,10.169,19.956
254.066,9.79643,10.1792,19.9757
256.003,9.80633,10.1904,19.9967
258.116,9.815597,10.202,20.0176
260.053,9.82422,10.2138,20.038
262.1655,9.83201,10.2264,20.0585
264.102,9.8392,10.2393,20.0785
266.039,9.84612,10.2546,20.1007
268.152,9.85209,10.2706,20.1227
270.089,9.85678,10.2869,20.1437
272.025,9.86055,10.3058,20.1663
274.138,9.8631,10.3257,20.1889
276.075,9.86472,10.3478,20.2125
278.012,9.86698,10.3732,20.2402
280.124,9.87057,10.4017,20.2723
282.061,9.87637,10.4321,20.3084
284.174,9.8877,10.4688,20.3565
286.111,9.90606,10.5092,20.4153
288.048,9.93919,10.5607,20.4999
290.16,9.99026,10.6204,20.6107
292.097,10.0555,10.6855,20.741
294.034,10.1436,10.762,20.90559
296.147,10.2504,10.8461,21.0965
298.083,10.3715,10.9366,21.308
300.02,10.5143,11.0426,21.5569
302.133,10.6777,11.1634,21.8411
304.07,10.8517,11.2966,22.1483
306.006,11.05649,11.4559,22.51241
308.1193,11.2929,11.64323,22.9361
310.056,11.5679,11.8675,23.4354
312.169,11.8588,12.0912,23.95
314.106,12.09719,12.2844,24.3816
316.042,12.3527,12.5271,24.8798
318.155,12.5999,12.7904,25.3903
320.092,12.8127,13.0364,25.849
322.029,13.0026,13.278,26.2806
324.1415,13.1592,13.5138,26.67299
326.078,13.2765,13.7273,27.0037
328.015,13.3636,13.928,27.2917
330.128,13.4162,14.1218,27.538
332.065,13.4391,14.2938,27.7328
334.001,13.4309,14.4571,27.8879
336.114,13.3975,14.618,28.0155
338.051,13.3406,14.771,28.1116
340.1637,13.2544,14.9116,28.1661
342.1,13.1578,15.0538,28.2115
344.0372,13.0326,15.1862,28.2187
346.15,12.8876,15.3293,28.2169
348.087,12.7345,15.4665,28.201
350.024,12.54877,15.5958,28.1446
352.136,12.3517,15.7481,28.0997
354.073,12.1411,15.881,28.0221
356.01,11.8987,16.0226,27.9212
358.123,11.6442,16.1766,27.8208
360.0594,11.3728,16.3051,27.6779
362.172,11.0628,16.47097,27.5338
364.109,10.7589,16.6181,27.377
366.046,10.4079,16.7409,27.1487
368.159,10.0496,16.9051,26.95471
370.095,9.68797,17.0533,26.7412
372.032,9.27089,17.1581,26.429
374.145,8.84517,17.3006,26.1458
376.082,8.4244,17.4333,25.8577
378.018,7.94756,17.51045,25.458
380.131,7.4425,17.5515,24.994
382.068,6.96734,17.6501,24.6174
384.005,6.45017,17.70982,24.16
386.117,5.89362,17.6434,23.537
388.054,5.29692,17.3993,22.6962
390.167,4.69039,17.0446,21.7349
392.104,4.08699,16.4471,20.5341
394.041,3.42177,15.26701,18.6888
396.153,2.66325,12.389,15.0522
398.09,1.37991,3.352417,4.73232
400.027,7.9193e-06,0.0,7.9193e-06
402.1397,0.0,0.0,0.0
404.076,0.0,0.0,0.0
406.0132,0.0,0.0,0.0
408.126,0.0,0.0,0.0
410.063,0.0,0.0,0.0
412.176,0.0,0.0,0.0
414.112,0.0,0.0,0.0
416.049,0.0,0.0,0.0
418.1619,0.0,0.0,0.0
420.099,0.0,0.0,0.0
422.0354,0.0,0.0,0.0
424.148,0.0,0.0,0.0
426.085,0.0,0.0,0.0
428.022,0.0,0.0,0.0
430.135,0.0,0.0,0.0
432.071,0.0,0.0,0.0
434.008,0.0,0.0,0.0
436.121,0.0,0.0,0.0
438.0576,0.0,0.0,0.0
440.17,0.0,0.0,0.0
442.107,0.0,0.0,0.0
444.044,0.0,0.0,0.0
446.157,0.0,0.0,0.0
448.093,0.0,0.0,0.0
450.03,0.0,0.0,0.0
452.143,0.0,0.0,0.0
454.08,0.0,0.0,0.0
456.017,0.0,0.0,0.0
458.129,0.0,0.0,0.0
460.066,0.0,0.0,0.0
462.003,0.0,0.0,0.0
464.116,0.0,0.0,0.0
466.052,0.0,0.0,0.0
468.165,0.0,0.0,0.0
470.102,0.0,0.0,0.0
472.039,0.0,0.0,0.0
474.152,0.0,0.0,0.0
476.088,0.0,0.0,0.0
478.025,0.0,0.0,0.0
480.1379,0.0,0.0,0.0
482.075,0.0,0.0,0.0
484.0114,0.0,0.0,0.0
486.124,0.0,0.0,0.0
488.061,0.0,0.0,0.0
490.174,0.0,0.0,0.0
492.111,0.0,0.0,0.0
494.047,0.0,0.0,0.0
496.1601,0.0,0.0,0.0
498.097,0.0,0.0,0.0
500.0,0.0,0.0,0.0