Folder: matl-db/PMMA/Validation_Results/BUW-FZJ (part 6)

File: BUW-FZJ_ApproachB_Gasification_q50_MLR_R4.csv
Time,MLR
[s],[g/m2/s]
0.0,0.0
2.1128,0.0
4.0496,0.0
6.1624,0.0
8.0991,0.0
10.0359,0.0003
12.1487,0.0018
14.0855,0.0067
16.0222,0.0217
18.135,0.0592
20.0718,0.1358
22.0085,0.2893
24.1213,0.5599
26.0581,0.967
28.1709,1.608
30.1077,2.3761
32.0444,3.3267
34.1572,4.3647
36.094,5.3737
38.0307,6.392
40.1435,7.339
42.0803,8.1653
44.017,8.945
46.1299,9.6429
48.0666,10.2426
50.0034,10.8068
52.1162,11.3146
54.0529,11.774
56.1657,12.1908
58.1025,12.5549
60.0392,12.9038
62.1521,13.2238
64.0888,13.5062
66.0256,13.7794
68.1384,14.0322
70.0751,14.2572
72.0119,14.4765
74.1247,14.6811
76.0614,14.8645
78.1743,15.0521
80.111,15.2139
82.0478,15.3735
84.1606,15.5244
86.0973,15.6613
88.0341,15.7976
90.1469,15.9274
92.0837,16.0464
94.0204,16.1658
96.1332,16.2807
98.07,16.387
100.0067,16.4948
102.1195,16.5996
104.0563,16.702
106.1691,16.8024
108.1059,16.8969
110.0426,16.9945
112.1554,17.0911
114.0922,17.1831
116.0289,17.2789
118.1417,17.3747
120.0785,17.4665
122.0152,17.5653
124.1281,17.6704
126.0648,17.762
128.0016,17.8622
130.1144,17.9626
132.0511,18.0628
134.1639,18.1654
136.1007,18.2653
138.0374,18.3689
140.1503,18.4738
142.087,18.5754
144.0238,18.6818
146.1366,18.789
148.0733,18.892
150.0101,19.0002
152.1229,19.1104
154.0596,19.2156
156.1725,19.333
158.1092,19.4395
160.046,19.5532
162.1588,19.667
164.0955,19.7761
166.0323,19.8935
168.1451,20.0104
170.0818,20.1251
172.0186,20.2464
174.1314,20.3689
176.0682,20.4872
178.0049,20.6137
180.1177,20.7426
182.0545,20.8712
184.1673,21.0024
186.104,21.1295
188.0408,21.2642
190.1536,21.4
192.0904,21.532
194.0271,21.6736
196.1399,21.8186
198.0767,21.9597
200.0134,22.1093
202.1263,22.2612
204.063,22.4081
206.1758,22.5723
208.1126,22.725
210.0493,22.8864
212.1621,23.0519
214.0989,23.2152
216.0356,23.3907
218.1485,23.5697
220.0852,23.7435
222.022,23.9278
224.1348,24.1168
226.0715,24.3026
228.0083,24.4988
230.1211,24.6987
232.0578,24.8983
234.1707,25.1234
236.1074,25.3328
238.0442,25.5544
240.157,25.7832
242.0937,26.0058
244.0305,26.2441
246.1433,26.4875
248.08,26.7253
250.0168,26.9785
252.1296,27.237
254.0664,27.4877
256.0031,27.7524
258.1159,28.0228
260.0527,28.2936
262.1655,28.5668
264.1023,28.8276
266.039,29.0991
268.1518,29.37
270.0886,29.6256
272.0253,29.8865
274.1381,30.143
276.0749,30.3814
278.0116,30.6221
280.1245,30.8534
282.0612,31.0649
284.174,31.2855
286.1108,31.4771
288.0475,31.6675
290.1603,31.8452
292.0971,32.0061
294.0338,32.1657
296.1467,32.3143
298.0834,32.4474
300.0202,32.5785
302.133,32.7001
304.0697,32.8088
306.0065,32.9116
308.1193,33.0024
310.056,33.0832
312.1689,33.1467
314.1056,33.1906
316.0424,33.2134
318.1552,33.2019
320.0919,33.1456
322.0287,33.0282
324.1415,32.8209
326.0783,32.4764
328.015,31.9027
330.1278,30.8634
332.0646,29.0041
334.0013,24.8093
336.1141,11.6351
338.0509,0.0
340.1637,0.0
342.1005,0.0
344.0372,0.0
346.15,0.0
348.0868,0.0
350.0235,0.0
352.1363,0.0
354.0731,0.0
356.0098,0.0
358.1226,0.0
360.0594,0.0
362.1722,0.0
364.109,0.0
366.0457,0.0
368.1585,0.0
370.0953,0.0
372.032,0.0
374.1449,0.0
376.0816,0.0
378.0184,0.0
380.1312,0.0
382.0679,0.0
384.0047,0.0
386.1175,0.0
388.0542,0.0
390.1671,0.0
392.1038,0.0
394.0406,0.0
396.1534,0.0
398.0901,0.0
400.0269,0.0
402.1397,0.0
404.0764,0.0
406.0132,0.0
408.126,0.0
410.0628,0.0
412.1756,0.0
414.1123,0.0
416.0491,0.0
418.1619,0.0
420.0986,0.0
422.0354,0.0
424.1482,0.0
426.085,0.0
428.0217,0.0
430.1345,0.0
432.0713,0.0
434.008,0.0
436.1208,0.0
438.0576,0.0
440.1704,0.0
442.1072,0.0
444.0439,0.0
446.1567,0.0
448.0935,0.0
450.0302,0.0
452.1431,0.0
454.0798,0.0
456.0166,0.0
458.1294,0.0
460.0661,0.0
462.0029,0.0
464.1157,0.0
466.0524,0.0
468.1653,0.0
470.102,0.0
472.0388,0.0
474.1516,0.0
476.0883,0.0
478.0251,0.0
480.1379,0.0
482.0746,0.0
484.0114,0.0
486.1242,0.0
488.061,0.0
490.1738,0.0
492.1105,0.0
494.0473,0.0
496.1601,0.0
498.0968,0.0
500.0,0.0

File: BUW-FZJ_ApproachB_Gasification_q50_MLR_R5.csv
Time,MLR
[s],[g/m2/s]
0.0,0.0
2.112818,8.63345e-11
4.04957,5.54694e-08
6.16239,2.92211e-06
8.09914,4.07359e-05
10.0359,0.00033116
12.1487,0.00179197
14.0855,0.00674622
16.0222,0.0216753
18.135,0.059189
20.0718,0.135818
22.0085,0.28931
24.1213,0.559926
26.0581,0.966998
28.1709,1.60799
30.1077,2.376074
32.0444,3.32668
34.1572,4.36474
36.094,5.37375
38.0307,6.39208
40.1435,7.33902
42.0803,8.16538
44.017,8.94496
46.12986,9.64288
48.06661,10.2425
50.00336,10.8066
52.1162,11.3142
54.0529,11.7733
56.1657,12.1897
58.1025,12.5533
60.0392,12.9016
62.1521,13.2208
64.0888,13.5021
66.0256,13.774
68.1384,14.0252
70.0751,14.2482
72.0119,14.4652
74.1247,14.6671
76.0614,14.8474
78.1743,15.0312
80.111,15.1889
82.0478,15.3438
84.1606,15.4892
86.0973,15.6205
88.0341,15.7501
90.1469,15.8727
92.0837,15.9841
94.0204,16.0948
96.13322,16.2004
98.06997,16.2971
100.007,16.3941
102.12,16.4874
104.056,16.5775
106.169,16.6648
108.106,16.7461
110.043,16.8292
112.155,16.91054
114.092,16.9871
116.029,17.0662
118.142,17.1444
120.078,17.2188
122.015,17.2962
124.128,17.3735
126.065,17.4474
128.002,17.52477
130.114,17.6129
132.051,17.68998
134.164,17.7667
136.101,17.8435
138.037,17.9252
140.15,18.0057
142.087,18.0818
144.024,18.1632
146.137,18.2436
148.073,18.3215
150.01,18.4023
152.1229,18.484
154.06,18.5618
156.172,18.647
158.109,18.7263
160.046,18.8105
162.159,18.8936
164.096,18.9733
166.032,19.0579
168.1451,19.1434
170.082,19.2255
172.0186,19.3121
174.131,19.4
176.068,19.4848
178.005,19.57485
180.118,19.6664
182.054,19.7589
184.1673,19.8523
186.104,19.9423
188.0408,20.0373
190.154,20.1338
192.09,20.2271
194.027,20.3246
196.14,20.4251
198.077,20.522
200.013,20.6265
202.126,20.7334
204.063,20.83556
206.176,20.9489
208.113,21.0545
210.049,21.166
212.162,21.2779
214.099,21.3872
216.036,21.505
218.148,21.625
220.085,21.7414
222.022,21.8678
224.135,21.9948
226.072,22.1179
228.008,22.2486
230.1211,22.3828
232.058,22.5116
234.171,22.6552
236.107,22.7902
238.044,22.93561
240.157,23.086
242.094,23.2323
244.03,23.3869
246.1433,23.5451
248.08,23.7
250.0168,23.8656
252.13,24.034
254.066,24.1973
256.003,24.3738
258.116,24.55848
260.053,24.7477
262.1655,24.93853
264.102,25.1271
266.039,25.3278
268.152,25.5323
270.089,25.7344
272.025,25.9487
274.138,26.1709
276.075,26.3884
278.012,26.6211
280.124,26.8569
282.061,27.0871
284.174,27.3427
286.111,27.5814
288.048,27.8329
290.16,28.0888
292.097,28.3348
294.034,28.5927
296.147,28.8513
298.083,29.0979
300.02,29.3547
302.133,29.6075
304.07,29.8454
306.006,30.0886
308.1193,30.324
310.056,30.55208
312.169,30.7731
314.106,30.9729
316.042,31.175
318.155,31.3663
320.092,31.5396
322.029,31.7116
324.1415,31.8728
326.078,32.0192
328.015,32.163
330.128,32.2971
332.065,32.4186
334.001,32.5371
336.114,32.6464
338.051,32.7467
340.1637,32.8344
342.1,32.9076
344.0372,32.9717
346.15,33.0184
348.087,33.0399
350.024,33.0354
352.136,32.9875
354.073,32.88374
356.01,32.7037
358.123,32.389
360.0594,31.8909
362.172,30.9789
364.109,29.4161
366.046,26.1727
368.159,17.4123
370.095,0.4465316
372.032,0.0
374.145,0.0
376.082,0.0
378.018,0.0
380.131,0.0
382.068,0.0
384.005,0.0
386.117,0.0
388.054,0.0
390.167,0.0
392.104,0.0
394.041,0.0
396.153,0.0
398.09,0.0
400.027,0.0
402.1397,0.0
404.076,0.0
406.0132,0.0
408.126,0.0
410.063,0.0
412.176,0.0
414.112,0.0
416.049,0.0
418.1619,0.0
420.099,0.0
422.0354,0.0
424.148,0.0
426.085,0.0
428.022,0.0
430.135,0.0
432.071,0.0
434.008,0.0
436.121,0.0
438.0576,0.0
440.17,0.0
442.107,0.0
444.044,0.0
446.157,0.0
448.093,0.0
450.03,0.0
452.143,0.0
454.08,0.0
456.017,0.0
458.129,0.0
460.066,0.0
462.003,0.0
464.116,0.0
466.052,0.0
468.165,0.0
470.102,0.0
472.039,0.0
474.152,0.0
476.088,0.0
478.025,0.0
480.1379,0.0
482.075,0.0
484.0114,0.0
486.124,0.0
488.061,0.0
490.174,0.0
492.111,0.0
494.047,0.0
496.1601,0.0
498.097,0.0
500.0,0.0

File: BUW-FZJ_ApproachB_Gasification_q50_Temp_R1.csv
Time,T_back_1
[s],[K]
0.0,290.65
2.112818,290.65
4.04957,290.65
6.16239,290.65
8.09914,290.65
10.0359,290.65
12.1487,290.651
14.0855,290.655
16.0222,290.669
18.135,290.702
20.0718,290.765
22.0085,290.876
24.1213,291.051
26.0581,291.292
28.1709,291.651
30.1077,292.078
32.0444,292.635
34.1572,293.312
36.094,294.075
38.0307,294.998
40.1435,296.05
42.0803,297.176
44.017,298.476
46.12986,299.9
48.06661,301.375
50.00336,303.028
52.1162,304.793
54.0529,306.661
56.1657,308.627
58.1025,310.594
60.0392,312.735
62.1521,314.955
64.0888,317.148
66.0256,319.506
68.1384,321.927
70.0751,324.296
72.0119,326.823
74.1247,329.398
76.0614,331.901
78.1743,334.673
80.111,337.247
82.0478,339.969
84.1606,342.72
86.0973,345.376
88.0341,348.176
90.1469,350.996
92.0837,353.712
94.0204,356.568
96.13322,359.44
98.06997,362.2
100.007,365.097
102.12,368.007
104.056,370.926
106.169,373.855
108.106,376.665
110.043,379.61
112.155,382.562
114.092,385.391
116.029,388.355
118.142,391.325
120.078,394.171
122.015,397.151
124.128,400.136
126.065,402.994
128.002,405.987
130.114,408.984
132.051,411.984
134.164,414.988
136.101,417.864
138.037,420.875
140.15,423.889
142.087,426.775
144.024,429.796
146.137,432.82
148.073,435.715
150.01,438.746
152.1229,441.78
154.06,444.686
156.172,447.86
158.109,450.772
160.046,453.821
162.159,456.873
164.096,459.795
166.032,462.854
168.1451,465.917
170.082,468.85
172.0186,471.92
174.131,474.994
176.068,477.937
178.005,481.019
180.118,484.104
182.054,487.193
184.1673,490.285
186.104,493.246
188.0408,496.344
190.154,499.445
192.09,502.414
194.027,505.52
196.14,508.628
198.077,511.604
200.013,514.715
202.126,517.8279
204.063,520.805
206.176,524.053
208.113,527.028
210.049,530.136
212.162,533.241
214.099,536.208
216.036,539.303
218.148,542.388
220.085,545.332
222.022,548.396
224.135,551.447
226.072,554.351
228.008,557.3719
230.1211,560.373
232.058,563.221
234.171,566.302
236.107,569.1014
238.044,572
240.157,574.867
242.094,577.578
244.03,580.378
246.1433,583.139
248.08,585.742
250.0168,588.419
252.13,591.054
254.066,593.534
256.003,596.087
258.116,598.601
260.053,601.082
262.1655,603.531
264.102,605.85
266.039,608.255
268.152,610.648
270.089,612.933
272.025,615.327
274.138,617.736
276.075,620.063
278.012,622.531
280.124,625.048
282.061,627.511
284.174,630.276
286.111,632.896
288.048,635.7371
290.16,638.701
292.097,641.6711
294.034,644.943
296.147,648.417
298.083,651.964
300.02,655.951
302.133,660.289
304.07,664.842
306.006,670.137
308.1193,676.158
310.056,683.194
312.169,691.747
314.106,702.285
316.042,718.462
318.155,750.493
320.092,806.696
322.029,843.071
324.1415,863.351
326.078,875.446
328.015,883.909
330.128,889.842
332.065,894.069
334.001,897.5078
336.114,900.263
338.051,902.549
340.1637,904.4839
342.1,906.092
344.0372,907.585
346.15,908.919
348.087,910.071
350.024,911.1667
352.136,912.166
354.073,913.045
356.01,913.895
358.123,914.684
360.0594,915.388
362.172,916.107
364.109,916.724
366.046,917.333
368.159,917.909
370.095,918.429
372.032,918.946
374.145,919.437
376.082,919.886
378.018,920.333
380.131,920.761
382.068,921.1525
384.005,921.545
386.117,921.922
388.054,922.284
390.167,922.633
392.104,922.953
394.041,923.278
396.153,923.59
398.09,923.879
400.027,924.171
402.1397,924.454
404.076,924.716
406.0132,924.981
408.126,925.239
410.063,925.477
412.176,925.73
414.112,925.956
416.049,926.1859
418.1619,926.411
420.099,926.623
422.0354,926.837
424.148,927.047
426.085,927.244
428.022,927.444
430.135,927.639
432.071,927.82
434.008,928.007
436.121,928.189
438.0576,928.358
440.17,928.538
442.107,928.701
444.044,928.865
446.157,929.027
448.093,929.178
450.03,929.333
452.143,929.484
454.08,929.625
456.017,929.77
458.129,929.912
460.066,930.046
462.003,930.1825
464.116,930.316
466.052,930.447
468.165,930.577
470.102,930.698
472.039,930.822
474.152,930.943
476.088,931.058
478.025,931.176
480.1379,931.292
482.075,931.4
484.0114,931.512
486.124,931.623
488.061,931.726
490.174,931.836
492.111,931.937
494.047,932.04
496.1601,932.142
498.097,932.238
500.0,932.335

File: BUW-FZJ_ApproachB_Gasification_q50_Temp_R2.csv
Time,T_back_1
[s],[K]
0.0,291.2
2.112818,291.2
4.04957,291.2
6.16239,291.2
8.09914,291.2
10.0359,291.2
12.1487,291.201
14.0855,291.203
16.0222,291.211
18.135,291.233
20.0718,291.274
22.0085,291.352
24.1213,291.479
26.0581,291.657
28.1709,291.929
30.1077,292.26
32.0444,292.698
34.1572,293.239
36.094,293.857
38.0307,294.613
40.1435,295.485
42.0803,296.426
44.017,297.523
46.12986,298.735
48.06661,299.999
50.00336,301.427
52.1162,302.96
54.0529,304.593
56.1657,306.322
58.1025,308.061
60.0392,309.961
62.1521,311.943
64.0888,313.908
66.0256,316.031
68.1384,318.218
70.0751,320.366
72.0119,322.665
74.1247,325.016
76.0614,327.307
78.1743,329.852
80.111,332.222
82.0478,334.735
84.1606,337.281
86.0973,339.743
88.0341,342.345
90.1469,344.972
92.0837,347.505
94.0204,350.175
96.13322,352.863
98.06997,355.451
100.007,358.173
102.12,360.909
104.056,363.658
106.169,366.421
108.106,369.073
110.043,371.857
112.155,374.651
114.092,377.332
116.029,380.1427
118.142,382.962
120.078,385.665
122.015,388.5
124.128,391.34
126.065,394.064
128.002,396.916
130.114,399.775
132.051,402.64
134.164,405.51
136.101,408.2604
138.037,411.141
140.15,414.026
142.087,416.79
144.024,419.686
146.137,422.586
148.073,425.364
150.01,428.274
152.1229,431.189
154.06,433.981
156.172,437.033
158.109,439.835
160.046,442.77
162.159,445.71
164.096,448.526
166.032,451.475
168.1451,454.43
170.082,457.26
172.0186,460.2247
174.131,463.194
176.068,466.04
178.005,469.02
180.118,472.006
182.054,474.997
184.1673,477.993
186.104,480.864
188.0408,483.87
190.154,486.88
192.09,489.7645
194.027,492.785
196.14,495.809
198.077,498.7073
200.013,501.741
202.126,504.779
204.063,507.688
206.176,510.864
208.113,513.778
210.049,516.827
212.162,519.878
214.099,522.797
216.036,525.851
218.148,528.904
220.085,531.8226
222.022,534.872
224.135,537.917
226.072,540.822
228.008,543.853
230.1211,546.874
232.058,549.753
234.171,552.882
236.107,555.738
238.044,558.707
240.157,561.655
242.094,564.454
244.03,567.357
246.1433,570.234
248.08,572.9606
250.0168,575.782
252.13,578.569
254.066,581.204
256.003,583.922
258.116,586.597
260.053,589.231
262.1655,591.823
264.102,594.266
266.039,596.782
268.152,599.263
270.089,601.604
272.025,604.025
274.138,606.424
276.075,608.702
278.012,611.074
280.124,613.445
282.061,615.721
284.174,618.221
286.111,620.539
288.048,623
290.16,625.513
292.097,627.975
294.034,630.624
296.147,633.364
298.083,636.085
300.02,639.05
302.133,642.165
304.07,645.306
306.006,648.789
308.1193,652.519
310.056,656.538
312.169,660.9184
314.106,665.522
316.042,670.888
318.155,677.006
320.092,683.841
322.029,692.536
324.1415,703.905
326.078,720.133
328.015,753.721
330.128,811.357
332.065,843.903
334.001,863.663
336.114,875.952
338.051,884.192
340.1637,890.0099
342.1,894.178
344.0372,897.579
346.15,900.312
348.087,902.4896
350.024,904.431
352.136,906.11
354.073,907.536
356.01,908.873
358.123,910.076
360.0594,911.123
362.172,912.165
364.109,913.041
366.046,913.89
368.159,914.677
370.095,915.38
372.032,916.068
374.145,916.713
376.082,917.295
378.018,917.871
380.131,918.415
382.068,918.91
384.005,919.402
386.117,919.871
388.054,920.317
390.167,920.744
392.104,921.135
394.041,921.528
396.153,921.9046
398.09,922.2501
400.027,922.6
402.1397,922.934
404.076,923.245
406.0132,923.557
408.126,923.859
410.063,924.139
412.176,924.434
414.112,924.696
416.049,924.96
418.1619,925.218
420.099,925.456
422.0354,925.699
424.148,925.935
426.085,926.155
428.022,926.381
430.135,926.6025
432.071,926.808
434.008,927.018
436.121,927.223
438.0576,927.415
440.17,927.619
442.107,927.8
444.044,927.986
446.157,928.168
448.093,928.336
450.03,928.51
452.143,928.679
454.08,928.836
456.017,928.998
458.129,929.157
460.066,929.304
462.003,929.455
464.116,929.6039
466.052,929.748
468.165,929.891
470.102,930.024
472.039,930.161
474.152,930.2938
476.088,930.419
478.025,930.549
480.1379,930.676
482.075,930.794
484.0114,930.916
486.124,931.0357
488.061,931.149
490.174,931.269
492.111,931.378
494.047,931.491
496.1601,931.601
498.097,931.704
500.0,931.809

File: BUW-FZJ_ApproachB_Gasification_q50_Temp_R3.csv
Time,T_back_1
[s],[K]
0.0,291.2
2.112818,291.2
4.04957,291.2
6.16239,291.2
8.09914,291.2
10.0359,291.2
12.1487,291.2
14.0855,291.2
16.0222,291.202
18.135,291.206
20.0718,291.215
22.0085,291.235
24.1213,291.272
26.0581,291.329
28.1709,291.425
30.1077,291.55
32.0444,291.727
34.1572,291.959
36.094,292.237
38.0307,292.592
40.1435,293.019
42.0803,293.498
44.017,294.074
46.12986,294.731
48.06661,295.436
50.00336,296.252
52.1162,297.151
54.0529,298.13
56.1657,299.189
58.1025,300.276
60.0392,301.485
62.1521,302.769
64.0888,304.062
66.0256,305.481
68.1384,306.964
70.0751,308.441
72.0119,310.042
74.1247,311.7
76.0614,313.334
78.1743,315.169
80.111,316.895
82.0478,318.743
84.1606,320.633
86.0973,322.477
88.0341,324.441
90.1469,326.439
92.0837,328.381
94.0204,330.441
96.13322,332.529
98.06997,334.551
100.007,336.69
102.12,338.853
104.056,341.039
106.169,343.245
108.106,345.374
110.043,347.618
112.155,349.88
114.092,352.06
116.029,354.354
118.142,356.664
120.078,358.886
122.015,361.224
124.128,363.574
126.065,365.835
128.002,368.21
130.114,370.598
132.051,372.996
134.164,375.406
136.101,377.721
138.037,380.152
140.15,382.592
142.087,384.935
144.024,387.395
146.137,389.863
148.073,392.233
150.01,394.72
152.1229,397.215
154.06,399.61
156.172,402.233
158.109,404.645
160.046,407.175
162.159,409.714
164.096,412.15
166.032,414.705
168.1451,417.268
170.082,419.728
172.0186,422.309
174.131,424.897
176.068,427.382
178.005,429.987
180.118,432.601
182.054,435.224
184.1673,437.856
186.104,440.381
188.0408,443.03
190.154,445.687
192.09,448.237
194.027,450.911
196.14,453.593
198.077,456.168
200.013,458.868
202.126,461.577
204.063,464.176
206.176,467.022
208.113,469.638
210.049,472.382
212.162,475.135
214.099,477.776
216.036,480.545
218.148,483.324
220.085,485.989
222.022,488.785
224.135,491.5884
226.072,494.278
228.008,497.097
230.1211,499.925
232.058,502.636
234.171,505.601
236.107,508.326
238.044,511.181
240.157,514.043
242.094,516.786
244.03,519.66
246.1433,522.538
248.08,525.295
250.0168,528.18
252.13,531.068
254.066,533.831
256.003,536.72
258.116,539.608
260.053,542.492
262.1655,545.374
264.102,548.122
266.039,550.989
268.152,553.847
270.089,556.572
272.025,559.406
274.138,562.224
276.075,564.903
278.012,567.685
280.124,570.445
282.061,573.064
284.174,575.893
286.111,578.46
288.048,581.115
290.16,583.735
292.097,586.207
294.034,588.756
296.147,591.269
298.083,593.64
300.02,596.085
302.133,598.499
304.07,600.78
306.006,603.141
308.1193,605.479
310.056,607.803
312.169,610.118
314.106,612.33
316.042,614.65
318.155,616.983
320.092,619.239
322.029,621.629
324.1415,624.065
326.078,626.448
328.015,629.006
330.128,631.645
332.065,634.258
334.001,637.099
336.114,640.071
338.051,643.197
340.1637,646.5074
342.1,649.872
344.0372,653.638
346.15,657.707
348.087,661.947
350.024,666.833
352.136,672.313
354.073,678.296
356.01,685.652
358.123,694.689
360.0594,706.182
362.172,725.778
364.109,763.255
366.046,815.778
368.159,845.801
370.095,863.3503
372.032,875.315
374.145,883.459
376.082,889.093
378.018,893.532
380.131,896.983
382.068,899.655
384.005,901.982
386.117,903.953
388.054,905.662
390.167,907.17
392.104,908.463
394.041,909.682
396.153,910.787
398.09,911.753
400.027,912.682
402.1397,913.539
404.076,914.3014
406.0132,915.044
408.126,915.738
410.063,916.362
412.176,917.003
414.112,917.557
416.049,918.106
418.1619,918.626
420.099,919.1
422.0354,919.573
424.148,920.023
426.085,920.435
428.022,920.848
430.135,921.243
432.071,921.606
434.008,921.971
436.121,922.323
438.0576,922.646
440.17,922.986
442.107,923.287
444.044,923.591
446.157,923.885
448.093,924.157
450.03,924.433
452.143,924.7
454.08,924.948
456.017,925.199
458.129,925.443
460.066,925.67
462.003,925.904
464.116,926.13
466.052,926.353
468.165,926.57
470.102,926.772
472.039,926.978
474.152,927.179
476.088,927.368
478.025,927.558
480.1379,927.745
482.075,927.9204
484.0114,928.098
486.124,928.272
488.061,928.435
490.174,928.608
492.111,928.763
494.047,928.922
496.1601,929.078
498.097,929.223
500.0,929.371

File: BUW-FZJ_ApproachB_Gasification_q50_Temp_R4.csv
Time,T_back_1
[s],[K]
0.0,291.7
2.112818,291.7
4.04957,291.7
6.16239,291.7
8.09914,291.7
10.0359,291.7
12.1487,291.7
14.0855,291.7
16.0222,291.702
18.135,291.706
20.0718,291.716
22.0085,291.737
24.1213,291.775
26.0581,291.835
28.1709,291.934
30.1077,292.064
32.0444,292.246
34.1572,292.485
36.094,292.771
38.0307,293.136
40.1435,293.574
42.0803,294.063
44.017,294.653
46.12986,295.324
48.06661,296.043
50.00336,296.875
52.1162,297.79
54.0529,298.787
56.1657,299.864
58.1025,300.968
60.0392,302.197
62.1521,303.499
64.0888,304.811
66.0256,306.249
68.1384,307.753
70.0751,309.248
72.0119,310.869
74.1247,312.546
76.0614,314.199
78.1743,316.054
80.111,317.799
82.0478,319.666
84.1606,321.575
86.0973,323.437
88.0341,325.419
90.1469,327.435
92.0837,329.394
94.0204,331.471
96.13322,333.576
98.06997,335.615
100.007,337.771
102.12,339.95
104.056,342.152
106.169,344.374
108.106,346.519
110.043,348.779
112.155,351.056
114.092,353.25
116.029,355.559
118.142,357.884
120.078,360.12
122.015,362.472
124.128,364.837
126.065,367.111
128.002,369.501
130.114,371.902
132.051,374.314
134.164,376.738
136.101,379.066
138.037,381.509
140.15,383.963
142.087,386.319
144.024,388.791
146.137,391.272
148.073,393.654
150.01,396.154
152.1229,398.662
154.06,401.069
156.172,403.704
158.109,406.128
160.046,408.67
162.159,411.221
164.096,413.669
166.032,416.236
168.1451,418.812
170.082,421.283
172.0186,423.875
174.131,426.476
176.068,428.971
178.005,431.5887
180.118,434.215
182.054,436.849
184.1673,439.493
186.104,442.029
188.0408,444.689
190.154,447.358
192.09,449.918
194.027,452.604
196.14,455.298
198.077,457.883
200.013,460.594
202.126,463.315
204.063,465.925
206.176,468.782
208.113,471.409
210.049,474.164
212.162,476.927
214.099,479.578
216.036,482.358
218.148,485.147
220.085,487.823
222.022,490.628
224.135,493.442
226.072,496.142
228.008,498.971
230.1211,501.808
232.058,504.528
234.171,507.502
236.107,510.235
238.044,513.099
240.157,515.969
242.094,518.72
244.03,521.6005
246.1433,524.485
248.08,527.248
250.0168,530.139
252.13,533.0317
254.066,535.799
256.003,538.691
258.116,541.5795
260.053,544.4652
262.1655,547.344
264.102,550.092
266.039,552.956
268.152,555.812
270.089,558.53
272.025,561.356
274.138,564.164
276.075,566.834
278.012,569.604
280.124,572.351
282.061,574.955
284.174,577.767
286.111,580.316
288.048,582.95
290.16,585.547
292.097,587.997
294.034,590.523
296.147,593.013
298.083,595.363
300.02,597.788
302.133,600.182
304.07,602.447
306.006,604.794
308.1193,607.123
310.056,609.441
312.169,611.755
314.106,613.972
316.042,616.302
318.155,618.653
320.092,620.931
322.029,623.354
324.1415,625.829
326.078,628.258
328.015,630.874
330.128,633.579
332.065,636.267
334.001,639.2
336.114,642.282
338.051,645.536
340.1637,648.995
342.1,652.529
344.0372,656.506
346.15,660.835
348.087,665.384
350.024,670.677
352.136,676.702
354.073,683.419
356.01,691.895
358.123,702.921
360.0594,718.316
362.172,750.705
364.109,803.4558
366.046,838.932
368.159,859.721
370.095,872.469
372.032,881.5109
374.145,887.898
376.082,892.45
378.018,896.139
380.131,899.083
382.068,901.412
384.005,903.473
386.117,905.245
388.054,906.805
390.167,908.194
392.104,909.3905
394.041,910.525
396.153,911.558
398.09,912.466
400.027,913.342
402.1397,914.152
404.076,914.875
406.0132,915.5824
408.126,916.245
410.063,916.842
412.176,917.456
414.112,917.988
416.049,918.517
418.1619,919.019
420.099,919.475
422.0354,919.931
424.148,920.367
426.085,920.766
428.022,921.166
430.135,921.549
432.071,921.902
434.008,922.257
436.121,922.599
438.0576,922.913
440.17,923.245
442.107,923.538
444.044,923.835
446.157,924.121
448.093,924.388
450.03,924.656
452.143,924.918
454.08,925.1599
456.017,925.406
458.129,925.645
460.066,925.869
462.003,926.097
464.116,926.321
466.052,926.54
468.165,926.752
470.102,926.951
472.039,927.153
474.152,927.351
476.088,927.535
478.025,927.723
480.1379,927.907
482.075,928.078
484.0114,928.253
486.124,928.425
488.061,928.584
490.174,928.754
492.111,928.907
494.047,929.064
496.1601,929.216
498.097,929.36
500.0,929.505