Folder: matl-db/PMMA/Validation_Results/BUW-FZJ

Note: PMMA/Validation_Results/BUW-FZJ/README.md
### Contributor
Name:

Institution:
Chair of Computational Civil Engineering (CCE) at the Bergische Universität Wuppertal (BUW);
Civil Safety Research (IAS-7) at Forschungszentrum Jülich (FZJ)

Country: Germany

------------------

### Test case

[NIST Gasification Apparatus](https://github.com/MaCFP/matl-db/tree/master/PMMA/Validation_Data/NIST_Gasification_Apparatus)

------------------

### CFD package
Code: Fire Dynamics Simulator (FDS)

Version: FDS6.7.9-0-gec52dee-HEAD

------------------

### Resolution

#### Computational domain discretization (flow solver)
Domain: 5 x 5 x 5 cells, 0.310m x 0.310m x 0.310m total volume

Simulation setup: solid phase only

|File Name|Sample Mass (g)|Sample Thickness (mm)|Kaowool Thickness (mm)|Initial Temperature (K)|
|:------------------------------------|:----:|:----:|:----:|:----:|
|BUW-FZJ_Gasification_q50_Temp_Copper|-|3.175|26.055|294.045|
|BUW-FZJ_Gasification_q50_Temp_Kaowool|-|28.6|0|290.65|
|BUW-FZJ_A_Gasification_q50_Mass_R3|26.474|5.9 |0.02852|290.65 |
|BUW-FZJ_A_Gasification_q50_Mass_R4|25.352|5.65|0.02852|290.65 |
|BUW-FZJ_A_Gasification_q50_Mass_R5|27.820|6.2 |0.02852|290.65 |
|BUW-FZJ_A_Gasification_q50_Temp_R1|24.006|5.35|0.02852|290.65 |
|BUW-FZJ_A_Gasification_q50_Temp_R2|24.769|5.52|0.02852|291.2  |
|BUW-FZJ_A_Gasification_q50_Temp_R3|27.461|6.12|0.02852|291.2  |
|BUW-FZJ_A_Gasification_q50_Temp_R4|27.371|6.1 |0.02852|291.7  |
|BUW-FZJ_A_Gasification_q50_Temp_R5|28.044|6.25|0.02852|291.669|
|BUW-FZJ_B_Gasification_q50_Mass_R3|26.681|5.9 |0.02852|290.65 |
|BUW-FZJ_B_Gasification_q50_Mass_R4|25.551|5.65|0.02852|290.65 |
|BUW-FZJ_B_Gasification_q50_Mass_R5|28.038|6.2 |0.02852|290.65 |
|BUW-FZJ_B_Gasification_q50_Temp_R1|24.194|5.35|0.02852|290.65 |
|BUW-FZJ_B_Gasification_q50_Temp_R2|24.963|5.52|0.02852|291.2  |
|BUW-FZJ_B_Gasification_q50_Temp_R3|27.676|6.12|0.02852|291.2  |
|BUW-FZJ_B_Gasification_q50_Temp_R4|27.586|6.1 |0.02852|291.7  |
|BUW-FZJ_B_Gasification_q50_Temp_R5|28.264|6.25|0.02852|291.669|
|BUW-FZJ_C_Gasification_q50_Mass_R3|26.979|5.9 |0.02852|290.65 |
|BUW-FZJ_C_Gasification_q50_Mass_R4|25.836|5.65|0.02852|290.65 |
|BUW-FZJ_C_Gasification_q50_Mass_R5|28.351|6.2 |0.02852|290.65 |
|BUW-FZJ_C_Gasification_q50_Temp_R1|24.464|5.35|0.02852|290.65 |
|BUW-FZJ_C_Gasification_q50_Temp_R2|25.241|5.52|0.02852|291.2  |
|BUW-FZJ_C_Gasification_q50_Temp_R3|27.985|6.12|0.02852|291.2  |
|BUW-FZJ_C_Gasification_q50_Temp_R4|27.893|6.1 |0.02852|291.7  |
|BUW-FZJ_C_Gasification_q50_Temp_R5|28.579|6.25|0.02852|291.669|

Cell size (solid):

|File Name|Element size (m)|Total Initial cells (-)|
|:----|:----:|:----:|
|BUW-FZJ_A_Gasification_q50_Mass_R3|0.0000113|521|
|BUW-FZJ_A_Gasification_q50_Mass_R4|0.0000113|499|
|BUW-FZJ_A_Gasification_q50_Mass_R5|0.0000113|548|
|BUW-FZJ_A_Gasification_q50_Temp_R1|0.0000113|473|
|BUW-FZJ_A_Gasification_q50_Temp_R2|0.0000113|488|
|BUW-FZJ_A_Gasification_q50_Temp_R3|0.0000113|541|
|BUW-FZJ_A_Gasification_q50_Temp_R4|0.0000113|539|
|BUW-FZJ_A_Gasification_q50_Temp

File: BUW-FZJ-B_Gasification_q50_Mass_R3.csv
Time,Mass
[s],[g]
0.0,26.6818
2.1128,26.6818
4.0496,26.6818
6.1624,26.6818
8.0991,26.6818
10.0359,26.6818
12.1487,26.6818
14.0855,26.6817
16.0222,26.6816
18.135,26.6813
20.0718,26.6806
22.0085,26.679
24.1213,26.6756
26.0581,26.6699
28.1709,26.6594
30.1077,26.6444
32.0444,26.622
34.1572,26.5917
36.094,26.5551
38.0307,26.509
40.1435,26.4551
42.0803,26.3971
44.017,26.3302
46.1299,26.2576
48.0666,26.1833
50.0034,26.1012
52.1162,26.0149
54.0529,25.9248
56.1657,25.8314
58.1025,25.7392
60.0392,25.64
62.1521,25.5382
64.0888,25.4386
66.0256,25.3323
68.1384,25.224
70.0751,25.1187
72.0119,25.0068
74.1247,24.8933
76.0614,24.7833
78.1743,24.6619
80.111,24.5493
82.0478,24.4303
84.1606,24.3101
86.0973,24.1942
88.0341,24.0719
90.1469,23.9486
92.0837,23.8298
94.0204,23.7047
96.1332,23.5788
98.07,23.4575
100.0067,23.3299
102.1195,23.2016
104.0563,23.0725
106.1691,22.9426
108.1059,22.8177
110.0426,22.6865
112.1554,22.5546
114.0922,22.4278
116.0289,22.2945
118.1417,22.1606
120.0785,22.0318
122.0152,21.8966
124.1281,21.7606
126.0648,21.63
128.0016,21.4926
130.1144,21.3546
132.0511,21.2159
134.1639,21.0765
136.1007,20.9426
138.0374,20.8018
140.1503,20.6603
142.087,20.5242
144.0238,20.3813
146.1366,20.2377
148.0733,20.0996
150.0101,19.9545
152.1229,19.8086
154.0596,19.6685
156.1725,19.5148
158.1092,19.3731
160.046,19.2243
162.1588,19.0748
164.0955,18.931
166.0323,18.7799
168.1451,18.628
170.0818,18.482
172.0186,18.3286
174.1314,18.1744
176.0682,18.026
178.0049,17.8702
180.1177,17.7135
182.0545,17.5559
184.1673,17.3975
186.104,17.2451
188.0408,17.0849
190.1536,16.9239
192.0904,16.769
194.0271,16.6061
196.1399,16.4424
198.0767,16.2848
200.0134,16.1191
202.1263,15.9524
204.063,15.792
206.1758,15.616
208.1126,15.4537
210.0493,15.2829
212.1621,15.1111
214.0989,14.9457
216.0356,14.7718
218.1485,14.5967
220.0852,14.4281
222.022,14.2506
224.1348,14.072
226.0715,13.9
228.0083,13.7189
230.1211,13.5366
232.0578,13.3609
234.1707,13.168
236.1074,12.9897
238.0442,12.802
240.157,12.6128
242.0937,12.4305
244.0305,12.2384
246.1433,12.0448
248.08,11.8581
250.0168,11.6614
252.1296,11.463
254.0664,11.2716
256.0031,11.0698
258.1159,10.8662
260.0527,10.6609
262.1655,10.4536
264.1023,10.2536
266.039,10.0426
268.1518,9.8296
270.0886,9.624
272.0253,9.4071
274.1381,9.1882
276.0749,8.9768
278.0116,8.7538
280.1245,8.5287
282.0612,8.3115
284.174,8.0724
286.1108,7.8514
288.0475,7.6183
290.1603,7.3833
292.0971,7.1567
294.0338,6.9182
296.1467,6.6778
298.0834,6.4464
300.0202,6.2029
302.133,5.9578
304.0697,5.7221
306.0065,5.4744
308.1193,5.2254
310.056,4.9752
312.1689,4.7239
314.1056,4.4826
316.0424,4.2293
318.1552,3.9751
320.0919,3.7312
322.0287,3.4754
324.1415,3.2189
326.0783,2.9731
328.015,2.7156
330.1278,2.4578
332.0646,2.2111
334.0013,1.9534
336.1141,1.6961
338.0509,1.4399
340.1637,1.1856
342.1005,0.9452
344.0372,0.6987
346.15,0.4613
348.0868,0.2504
350.0235,0.0687
352.1363,0.0002
354.0731,0.0
356.0098,0.0
358.1226,0.0
360.0594,0.0
362.1722,0.0
364.109,0.0
366.0457,0.0
368.1585,0.0
370.0953,0.0
372.032,0.0
374.1449,0.0
376.0816,0.0
378.0184,0.0
380.1312,0.0
382.0679,0.0
384.0047,0.0
386.1175,0.0
388.0542,0.0
390.1671,0.0
392.1038,0.0
394.0406,0.0
396.1534,0.0
398.0901,0.0
400.0269,0.0
402.1397,0.0
404.0764,0.0
406.0132,0.0
408.126,0.0
410.0628,0.0
412.1756,0.0
414.1123,0.0
416.0491,0.0
418.1619,0.0
420.0986,0.0
422.0354,0.0
424.1482,0.0
426.085,0.0
428.0217,0.0
430.1345,0.0
432.0713,0.0
434.008,0.0
436.1208,0.0
438.0576,0.0
440.1704,0.0
442.1072,0.0
444.0439,0.0
446.1567,0.0
448.0935,0.0
450.0302,0.0
452.1431,0.0
454.0798,0.0
456.0166,0.0
458.1294,0.0
460.0661,0.0
462.0029,0.0
464.1157,0.0
466.0524,0.0
468.1653,0.0
470.102,0.0
472.0388,0.0
474.1516,0.0
476.0883,0.0
478.0251,0.0
480.1379,0.0
482.0746,0.0
484.0114,0.0
486.1242,0.0
488.061,0.0
490.1738,0.0
492.1105,0.0
494.0473,0.0
496.1601,0.0
498.0968,0.0
500.0,0.0

File: BUW-FZJ-B_Gasification_q50_MLR_R3.csv
Time,MLR
[s],[g/m2/s]
0.0,0.0
2.1128,0.0
4.0496,0.0
6.1624,0.0
8.0991,0.0
10.0359,0.0003
12.1487,0.0018
14.0855,0.0067
16.0222,0.0217
18.135,0.0592
20.0718,0.1358
22.0085,0.2893
24.1213,0.5599
26.0581,0.967
28.1709,1.608
30.1077,2.3761
32.0444,3.3267
34.1572,4.3647
36.094,5.3737
38.0307,6.3921
40.1435,7.339
42.0803,8.1654
44.017,8.9449
46.1299,9.6429
48.0666,10.2425
50.0034,10.8066
52.1162,11.3143
54.0529,11.7735
56.1657,12.19
58.1025,12.5538
60.0392,12.9023
62.1521,13.2218
64.0888,13.5036
66.0256,13.7759
68.1384,14.0277
70.0751,14.2515
72.0119,14.4694
74.1247,14.6724
76.0614,14.8539
78.1743,15.0393
80.111,15.1987
82.0478,15.3555
84.1606,15.5033
86.0973,15.6369
88.0341,15.7694
90.1469,15.8952
92.0837,16.0098
94.0204,16.1244
96.1332,16.2341
98.07,16.3351
100.0067,16.4369
102.1195,16.5355
104.0563,16.6312
106.1691,16.7245
108.1059,16.8119
110.0426,16.9017
112.1554,16.9902
114.0922,17.074
116.0289,17.1609
118.1417,17.2475
120.0785,17.3301
122.0152,17.4166
124.1281,17.5033
126.0648,17.5955
128.0016,17.6819
130.1144,17.7705
132.0511,17.8602
134.1639,17.9516
136.1007,18.0394
138.0374,18.1309
140.1503,18.2232
142.087,18.3116
144.0238,18.4054
146.1366,18.4992
148.0733,18.5901
150.0101,18.6839
152.1229,18.7792
154.0596,18.8708
156.1725,18.9719
158.1092,19.0652
160.046,19.1633
162.1588,19.262
164.0955,19.3562
166.0323,19.4563
168.1451,19.5581
170.0818,19.6565
172.0186,19.7598
174.1314,19.8648
176.0682,19.9668
178.0049,20.0746
180.1177,20.1839
182.0545,20.2958
184.1673,20.4071
186.104,20.5153
188.0408,20.6299
190.1536,20.7454
192.0904,20.8574
194.0271,20.9774
196.1399,21.0998
198.0767,21.2184
200.0134,21.345
202.1263,21.4743
204.063,21.5984
206.1758,21.7361
208.1126,21.8652
210.0493,22.001
212.1621,22.1383
214.0989,22.273
216.0356,22.4181
218.1485,22.566
220.0852,22.7123
222.022,22.8664
224.1348,23.0224
226.0715,23.1757
228.0083,23.3377
230.1211,23.503
232.0578,23.6641
234.1707,23.8463
236.1074,24.0173
238.0442,24.2028
240.157,24.3908
242.0937,24.5727
244.0305,24.7681
246.1433,24.9697
248.08,25.166
250.0168,25.3759
252.1296,25.5876
254.0664,25.8021
256.0031,26.0303
258.1159,26.2612
260.0527,26.4976
262.1655,26.7388
264.1023,26.9749
266.039,27.2253
268.1518,27.4798
270.0886,27.7266
272.0253,27.988
274.1381,28.2519
276.0749,28.5055
278.0116,28.7709
280.1245,29.0371
282.0612,29.2904
284.174,29.5629
286.1108,29.8086
288.0475,30.0598
290.1603,30.304
292.0971,30.5299
294.0338,30.7597
296.1467,30.9779
298.0834,31.1775
300.0202,31.3775
302.133,31.565
304.0697,31.7362
306.0065,31.9036
308.1193,32.0617
310.056,32.2101
312.1689,32.3505
314.1056,32.4756
316.0424,32.5975
318.1552,32.7117
320.0919,32.8111
322.0287,32.9057
324.1415,32.9859
326.0783,33.0515
328.015,33.1024
330.1278,33.1312
332.0646,33.1326
334.0013,33.0946
336.1141,33.0021
338.0509,32.8233
340.1637,32.5323
342.1005,32.069
344.0372,31.2427
346.15,29.7293
348.0868,26.8371
350.0235,19.1327
352.1363,0.7276
354.0731,0.0
356.0098,0.0
358.1226,0.0
360.0594,0.0
362.1722,0.0
364.109,0.0
366.0457,0.0
368.1585,0.0
370.0953,0.0
372.032,0.0
374.1449,0.0
376.0816,0.0
378.0184,0.0
380.1312,0.0
382.0679,0.0
384.0047,0.0
386.1175,0.0
388.0542,0.0
390.1671,0.0
392.1038,0.0
394.0406,0.0
396.1534,0.0
398.0901,0.0
400.0269,0.0
402.1397,0.0
404.0764,0.0
406.0132,0.0
408.126,0.0
410.0628,0.0
412.1756,0.0
414.1123,0.0
416.0491,0.0
418.1619,0.0
420.0986,0.0
422.0354,0.0
424.1482,0.0
426.085,0.0
428.0217,0.0
430.1345,0.0
432.0713,0.0
434.008,0.0
436.1208,0.0
438.0576,0.0
440.1704,0.0
442.1072,0.0
444.0439,0.0
446.1567,0.0
448.0935,0.0
450.0302,0.0
452.1431,0.0
454.0798,0.0
456.0166,0.0
458.1294,0.0
460.0661,0.0
462.0029,0.0
464.1157,0.0
466.0524,0.0
468.1653,0.0
470.102,0.0
472.0388,0.0
474.1516,0.0
476.0883,0.0
478.0251,0.0
480.1379,0.0
482.0746,0.0
484.0114,0.0
486.1242,0.0
488.061,0.0
490.1738,0.0
492.1105,0.0
494.0473,0.0
496.1601,0.0
498.0968,0.0
500.0,0.0

File: BUW-FZJ-B_Gasification_q50_MLR_R5.csv
Time,MLR
[s],[g/m2/s]
0.0,0.0
2.1128,0.0
4.0496,0.0
6.1624,0.0
8.0991,0.0
10.0359,0.0003
12.1487,0.0018
14.0855,0.0067
16.0222,0.0217
18.135,0.0592
20.0718,0.1358
22.0085,0.2893
24.1213,0.5599
26.0581,0.967
28.1709,1.608
30.1077,2.3761
32.0444,3.3267
34.1572,4.3647
36.094,5.3737
38.0307,6.3921
40.1435,7.339
42.0803,8.1654
44.017,8.945
46.1299,9.6429
48.0666,10.2425
50.0034,10.8066
52.1162,11.3142
54.0529,11.7733
56.1657,12.1897
58.1025,12.5533
60.0392,12.9016
62.1521,13.2208
64.0888,13.5021
66.0256,13.774
68.1384,14.0252
70.0751,14.2482
72.0119,14.4652
74.1247,14.6671
76.0614,14.8474
78.1743,15.0312
80.111,15.1889
82.0478,15.3438
84.1606,15.4892
86.0973,15.6205
88.0341,15.7501
90.1469,15.8727
92.0837,15.9841
94.0204,16.0948
96.1332,16.2004
98.07,16.2971
100.0067,16.3941
102.1195,16.4874
104.0563,16.5775
106.1691,16.6648
108.1059,16.7461
110.0426,16.8292
112.1554,16.9105
114.0922,16.9871
116.0289,17.0662
118.1417,17.1444
120.0785,17.2188
122.0152,17.2962
124.1281,17.3735
126.0648,17.4474
128.0016,17.5248
130.1144,17.6129
132.0511,17.69
134.1639,17.7667
136.1007,17.8435
138.0374,17.9252
140.1503,18.0057
142.087,18.0818
144.0238,18.1632
146.1366,18.2436
148.0733,18.3215
150.0101,18.4023
152.1229,18.484
154.0596,18.5618
156.1725,18.647
158.1092,18.7263
160.046,18.8105
162.1588,18.8936
164.0955,18.9733
166.0323,19.0579
168.1451,19.1434
170.0818,19.2255
172.0186,19.3121
174.1314,19.4
176.0682,19.4848
178.0049,19.5748
180.1177,19.6664
182.0545,19.7589
184.1673,19.8523
186.104,19.9423
188.0408,20.0373
190.1536,20.1338
192.0904,20.2271
194.0271,20.3246
196.1399,20.4251
198.0767,20.522
200.0134,20.6265
202.1263,20.7334
204.063,20.8356
206.1758,20.9489
208.1126,21.0545
210.0493,21.166
212.1621,21.2779
214.0989,21.3872
216.0356,21.505
218.1485,21.625
220.0852,21.7414
222.022,21.8678
224.1348,21.9948
226.0715,22.1179
228.0083,22.2486
230.1211,22.3828
232.0578,22.5116
234.1707,22.6552
236.1074,22.7902
238.0442,22.9356
240.157,23.086
242.0937,23.2323
244.0305,23.3869
246.1433,23.5451
248.08,23.7
250.0168,23.8656
252.1296,24.034
254.0664,24.1973
256.0031,24.3738
258.1159,24.5585
260.0527,24.7477
262.1655,24.9385
264.1023,25.1271
266.039,25.3278
268.1518,25.5323
270.0886,25.7344
272.0253,25.9487
274.1381,26.1709
276.0749,26.3884
278.0116,26.6211
280.1245,26.8569
282.0612,27.0871
284.174,27.3427
286.1108,27.5814
288.0475,27.8329
290.1603,28.0888
292.0971,28.3348
294.0338,28.5927
296.1467,28.8513
298.0834,29.0979
300.0202,29.3547
302.133,29.6075
304.0697,29.8454
306.0065,30.0886
308.1193,30.324
310.056,30.5521
312.1689,30.7731
314.1056,30.9729
316.0424,31.175
318.1552,31.3663
320.0919,31.5396
322.0287,31.7116
324.1415,31.8728
326.0783,32.0192
328.015,32.163
330.1278,32.2971
332.0646,32.4186
334.0013,32.5371
336.1141,32.6464
338.0509,32.7467
340.1637,32.8344
342.1005,32.9076
344.0372,32.9717
346.15,33.0184
348.0868,33.0399
350.0235,33.0354
352.1363,32.9875
354.0731,32.8837
356.0098,32.7037
358.1226,32.389
360.0594,31.8909
362.1722,30.9789
364.109,29.4161
366.0457,26.1727
368.1585,17.4123
370.0953,0.4465
372.032,0.0
374.1449,0.0
376.0816,0.0
378.0184,0.0
380.1312,0.0
382.0679,0.0
384.0047,0.0
386.1175,0.0
388.0542,0.0
390.1671,0.0
392.1038,0.0
394.0406,0.0
396.1534,0.0
398.0901,0.0
400.0269,0.0
402.1397,0.0
404.0764,0.0
406.0132,0.0
408.126,0.0
410.0628,0.0
412.1756,0.0
414.1123,0.0
416.0491,0.0
418.1619,0.0
420.0986,0.0
422.0354,0.0
424.1482,0.0
426.085,0.0
428.0217,0.0
430.1345,0.0
432.0713,0.0
434.008,0.0
436.1208,0.0
438.0576,0.0
440.1704,0.0
442.1072,0.0
444.0439,0.0
446.1567,0.0
448.0935,0.0
450.0302,0.0
452.1431,0.0
454.0798,0.0
456.0166,0.0
458.1294,0.0
460.0661,0.0
462.0029,0.0
464.1157,0.0
466.0524,0.0
468.1653,0.0
470.102,0.0
472.0388,0.0
474.1516,0.0
476.0883,0.0
478.0251,0.0
480.1379,0.0
482.0746,0.0
484.0114,0.0
486.1242,0.0
488.061,0.0
490.1738,0.0
492.1105,0.0
494.0473,0.0
496.1601,0.0
498.0968,0.0
500.0,0.0

File: BUW-FZJ-B_Gasification_q50_Temp_R2.csv
Time,T_back_1
[s],[K]
0.0,291.2
2.1128,291.2
4.0496,291.2
6.1624,291.2
8.0991,291.2
10.0359,291.2
12.1487,291.2005
14.0855,291.2029
16.0222,291.2112
18.135,291.2326
20.0718,291.2745
22.0085,291.3525
24.1213,291.479
26.0581,291.6573
28.1709,291.9292
30.1077,292.2598
32.0444,292.6977
34.1572,293.2388
36.094,293.8572
38.0307,294.6131
40.1435,295.4846
42.0803,296.4262
44.017,297.5233
46.1299,298.7354
48.0666,299.9993
50.0034,301.4266
52.1162,302.9597
54.0529,304.5926
56.1657,306.3219
58.1025,308.0605
60.0392,309.9614
62.1521,311.943
64.0888,313.9081
66.0256,316.0305
68.1384,318.2179
70.0751,320.3659
72.0119,322.6653
74.1247,325.0157
76.0614,327.3074
78.1743,329.8521
80.111,332.2222
82.0478,334.7349
84.1606,337.2805
86.0973,339.7434
88.0341,342.3449
90.1469,344.9716
92.0837,347.5053
94.0204,350.1747
96.1332,352.8633
98.07,355.4513
100.0067,358.1726
102.1195,360.9087
104.0563,363.6583
106.1691,366.4205
108.1059,369.0733
110.0426,371.8571
112.1554,374.6508
114.0922,377.3317
116.0289,380.1427
118.1417,382.9618
120.0785,385.6652
122.0152,388.4995
124.1281,391.3403
126.0648,394.0635
128.0016,396.9165
130.1144,399.7755
132.0511,402.64
134.1639,405.5101
136.1007,408.2604
138.0374,411.1406
140.1503,414.0259
142.087,416.7904
144.0238,419.6855
146.1366,422.5857
148.0733,425.3643
150.0101,428.274
152.1229,431.1886
154.0596,433.9812
156.1725,437.0332
158.1092,439.8355
160.046,442.77
162.1588,445.7097
164.0955,448.526
166.0323,451.4752
168.1451,454.4296
170.0818,457.2603
172.0186,460.2247
174.1314,463.1944
176.0682,466.04
178.0049,469.0203
180.1177,472.006
182.0545,474.9969
184.1673,477.9929
186.104,480.8636
188.0408,483.8696
190.1536,486.8804
192.0904,489.7645
194.0271,492.7846
196.1399,495.8094
198.0767,498.7073
200.0134,501.741
202.1263,504.7786
204.063,507.6876
206.1758,510.8642
208.1126,513.7783
210.0493,516.8271
212.1621,519.8778
214.0989,522.7974
216.0356,525.8508
218.1485,528.9037
220.0852,531.8226
222.022,534.8721
224.1348,537.9167
226.0715,540.8223
228.0083,543.8527
230.1211,546.8736
232.0578,549.7532
234.1707,552.8822
236.1074,555.7379
238.0442,558.7075
240.157,561.6549
242.0937,564.4535
244.0305,567.357
246.1433,570.2343
248.08,572.9606
250.0168,575.7816
252.1296,578.5693
254.0664,581.2035
256.0031,583.9216
258.1159,586.5968
260.0527,589.2306
262.1655,591.8233
264.1023,594.2659
266.039,596.7822
268.1518,599.2626
270.0886,601.6043
272.0253,604.0254
274.1381,606.4236
276.0749,608.702
278.0116,611.0742
280.1245,613.4455
282.0612,615.7209
284.174,618.2208
286.1108,620.5387
288.0475,623.0002
290.1603,625.5127
292.0971,627.9753
294.0338,630.624
296.1467,633.3643
298.0834,636.0845
300.0202,639.0497
302.133,642.1649
304.0697,645.3057
306.0065,648.7894
308.1193,652.5186
310.056,656.5381
312.1689,660.9184
314.1056,665.5219
316.0424,670.8882
318.1552,677.0056
320.0919,683.8407
322.0287,692.5357
324.1415,703.9052
326.0783,720.1329
328.015,753.721
330.1278,811.3567
332.0646,843.9031
334.0013,863.6631
336.1141,875.9525
338.0509,884.1919
340.1637,890.0099
342.1005,894.1783
344.0372,897.5786
346.15,900.3121
348.0868,902.4896
350.0235,904.4307
352.1363,906.1099
354.0731,907.536
356.0098,908.873
358.1226,910.0761
360.0594,911.1226
362.1722,912.1646
364.109,913.0414
366.0457,913.89
368.1585,914.6768
370.0953,915.3795
372.032,916.0678
374.1449,916.7131
376.0816,917.2953
378.0184,917.8706
380.1312,918.415
382.0679,918.9096
384.0047,919.4017
386.1175,919.8705
388.0542,920.3172
390.1671,920.7441
392.1038,921.1355
394.0406,921.5278
396.1534,921.9046
398.0901,922.2501
400.0269,922.5999
402.1397,922.9342
404.0764,923.2446
406.0132,923.5575
408.126,923.859
410.0628,924.1391
412.1756,924.4336
414.1123,924.6958
416.0491,924.9604
418.1619,925.2181
420.0986,925.4563
422.0354,925.6991
424.1482,925.9351
426.085,926.1555
428.0217,926.381
430.1345,926.6025
432.0713,926.8078
434.008,927.0179
436.1208,927.2235
438.0576,927.4147
440.1704,927.6186
442.1072,927.7996
444.0439,927.9863
446.1567,928.1678
448.0935,928.3365
450.0302,928.5098
452.1431,928.6793
454.0798,928.8365
456.0166,928.9983
458.1294,929.1569
460.0661,929.3044
462.0029,929.4554
464.1157,929.6039
466.0524,929.7483
468.1653,929.8908
470.102,930.0245
472.0388,930.161
474.1516,930.2938
476.0883,930.4195
478.0251,930.5494
480.1379,930.676
482.0746,930.7944
484.0114,930.9163
486.1242,931.0357
488.061,931.1488
490.1738,931.2694
492.1105,931.3781
494.0473,931.4906
496.1601,931.6006
498.0968,931.7037
500.0,931.8088

File: BUW-FZJ-B_Gasification_q50_Temp_R4.csv
Time,T_back_1
[s],[K]
0.0,291.7
2.1128,291.7
4.0496,291.7
6.1624,291.7
8.0991,291.7
10.0359,291.7
12.1487,291.7
14.0855,291.7003
16.0222,291.7017
18.135,291.7059
20.0718,291.7158
22.0085,291.7369
24.1213,291.7754
26.0581,291.8352
28.1709,291.9343
30.1077,292.0638
32.0444,292.2464
34.1572,292.4848
36.094,292.7708
38.0307,293.1357
40.1435,293.5735
42.0803,294.0635
44.017,294.6528
46.1299,295.3239
48.0666,296.0427
50.0034,296.8749
52.1162,297.7903
54.0529,298.787
56.1657,299.8645
58.1025,300.9684
60.0392,302.1967
62.1521,303.4993
64.0888,304.8114
66.0256,306.2494
68.1384,307.7528
70.0751,309.2485
72.0119,310.8694
74.1247,312.5462
76.0614,314.1991
78.1743,316.054
80.111,317.799
82.0478,319.6661
84.1606,321.5748
86.0973,323.4366
88.0341,325.4185
90.1469,327.4349
92.0837,329.3936
94.0204,331.4706
96.1332,333.5762
98.07,335.615
100.0067,337.7709
102.1195,339.9504
104.0563,342.1519
106.1691,344.3745
108.1059,346.5187
110.0426,348.7785
112.1554,351.056
114.0922,353.2501
116.0289,355.5594
118.1417,357.8838
120.0785,360.1205
122.0152,362.4723
124.1281,364.8372
126.0648,367.1111
128.0016,369.5006
130.1144,371.902
132.0511,374.3144
134.1639,376.7379
136.1007,379.0658
138.0374,381.5093
140.1503,383.9628
142.087,386.3187
144.0238,388.7908
146.1366,391.2724
148.0733,393.6544
150.0101,396.1536
152.1229,398.6616
154.0596,401.0689
156.1725,403.704
158.1092,406.1278
160.046,408.6702
162.1588,411.2212
164.0955,413.6688
166.0323,416.2361
168.1451,418.8117
170.0818,421.2832
172.0186,423.8754
174.1314,426.476
176.0682,428.9714
178.0049,431.5887
180.1177,434.2147
182.0545,436.8494
184.1673,439.4927
186.104,442.0291
188.0408,444.6892
190.1536,447.3578
192.0904,449.9184
194.0271,452.6036
196.1399,455.2976
198.0767,457.8828
200.0134,460.5941
202.1263,463.3146
204.063,465.9249
206.1758,468.7818
208.1126,471.4089
210.0493,474.1638
212.1621,476.9272
214.0989,479.5783
216.0356,482.3585
218.1485,485.1472
220.0852,487.8228
222.022,490.6285
224.1348,493.4424
226.0715,496.1415
228.0083,498.9708
230.1211,501.8077
232.0578,504.5277
234.1707,507.5022
236.1074,510.2353
238.0442,513.0988
240.157,515.9692
242.0937,518.7199
244.0305,521.6005
246.1433,524.4854
248.08,527.248
250.0168,530.139
252.1296,533.0317
254.0664,535.7986
256.0031,538.6906
258.1159,541.5795
260.0527,544.4652
262.1655,547.3443
264.1023,550.0919
266.039,552.9561
268.1518,555.8116
270.0886,558.5303
272.0253,561.3558
274.1381,564.1643
276.0749,566.8335
278.0116,569.6036
280.1245,572.3506
282.0612,574.9547
284.174,577.7668
286.1108,580.3162
288.0475,582.9502
290.1603,585.547
292.0971,587.9967
294.0338,590.5229
296.1467,593.013
298.0834,595.3628
300.0202,597.7877
302.133,600.1818
304.0697,602.4475
306.0065,604.7937
308.1193,607.1227
310.056,609.4408
312.1689,611.7552
314.1056,613.9721
316.0424,616.3016
318.1552,618.6529
320.0919,620.931
322.0287,623.3535
324.1415,625.8293
326.0783,628.2584
328.015,630.8735
330.1278,633.5793
332.0646,636.2671
334.0013,639.2003
336.1141,642.2822
338.0509,645.5361
340.1637,648.995
342.1005,652.5291
344.0372,656.5064
346.15,660.8346
348.0868,665.3843
350.0235,670.6766
352.1363,676.7018
354.0731,683.4192
356.0098,691.8952
358.1226,702.9214
360.0594,718.3156
362.1722,750.7049
364.109,803.4558
366.0457,838.9323
368.1585,859.7214
370.0953,872.4692
372.032,881.5109
374.1449,887.8979
376.0816,892.4502
378.0184,896.1392
380.1312,899.0832
382.0679,901.4119
384.0047,903.4725
386.1175,905.2448
388.0542,906.8052
390.1671,908.1941
392.1038,909.3905
394.0406,910.5254
396.1534,911.558
398.0901,912.4655
400.0269,913.3416
402.1397,914.1524
404.0764,914.875
406.0132,915.5824
408.126,916.2451
410.0628,916.8423
412.1756,917.4562
414.1123,917.9884
416.0491,918.5169
418.1619,919.0185
420.0986,919.4751
422.0354,919.9314
424.1482,920.3672
426.085,920.7662
428.0217,921.1658
430.1345,921.5494
432.0713,921.9023
434.008,922.2566
436.1208,922.5986
438.0576,922.9132
440.1704,923.2449
442.1072,923.538
444.0439,923.8349
446.1567,924.1214
448.0935,924.3878
450.0302,924.6563
452.1431,924.9176
454.0798,925.1599
456.0166,925.406
458.1294,925.6448
460.0661,925.8692
462.0029,926.0974
464.1157,926.3215
466.0524,926.5399
468.1653,926.7524
470.102,926.951
472.0388,927.1534
474.1516,927.3515
476.0883,927.5352
478.0251,927.7231
480.1379,927.907
482.0746,928.0782
484.0114,928.2531
486.1242,928.4248
488.061,928.584
490.1738,928.7542
492.1105,928.9072
494.0473,929.0639
496.1601,929.2164
498.0968,929.3599
500.0,929.5048