Folder: matl-db/PMMA/Validation_Results/BUW-FZJ (part 5)

File: BUW-FZJ_ApproachA_Gasification_q50_Temp_R4.csv
Time,T_back_1
[s],[K]
0.0,291.7
2.1128,291.7
4.0496,291.7
6.1624,291.7
8.0991,291.7
10.0359,291.7
12.1487,291.7
14.0855,291.7
16.0222,291.7001
18.135,291.7007
20.0718,291.7023
22.0085,291.7064
24.1213,291.715
26.0581,291.73
28.1709,291.7575
30.1077,291.7968
32.0444,291.8564
34.1572,291.9397
36.094,292.0456
38.0307,292.188
40.1435,292.3672
42.0803,292.5764
44.017,292.8378
46.1299,293.1466
48.0666,293.4881
50.0034,293.8955
52.1162,294.3568
54.0529,294.8724
56.1657,295.444
58.1025,296.0433
60.0392,296.7248
62.1521,297.463
64.0888,298.2213
66.0256,299.068
68.1384,299.9697
70.0751,300.8821
72.0119,301.8871
74.1247,302.9437
76.0614,304.0008
78.1743,305.2045
80.111,306.3528
82.0478,307.5976
84.1606,308.8868
86.0973,310.1595
88.0341,311.5301
90.1469,312.9406
92.0837,314.3254
94.0204,315.8091
96.1332,317.3287
98.07,318.8143
100.0067,320.3997
102.1195,322.0174
104.0563,323.6659
106.1691,325.3446
108.1059,326.9778
110.0426,328.7126
112.1554,330.4748
114.0922,332.1852
116.0289,333.9984
118.1417,335.8372
120.0785,337.6186
122.0152,339.5042
124.1281,341.4133
126.0648,343.2607
128.0016,345.2138
130.1144,347.1891
132.0511,349.1856
134.1639,351.2035
136.1007,353.1531
138.0374,355.2114
140.1503,357.29
142.087,359.2968
144.0238,361.4141
146.1366,363.5511
148.0733,365.6132
150.0101,367.7878
152.1229,369.9816
154.0596,372.0978
156.1725,374.426
158.1092,376.578
160.046,378.8461
162.1588,381.1326
164.0955,383.3371
166.0323,385.6595
168.1451,388.0004
170.0818,390.2566
172.0186,392.6329
174.1314,395.0279
176.0682,397.3355
178.0049,399.7659
180.1177,402.2146
182.0545,404.6813
184.1673,407.1661
186.104,409.56
188.0408,412.0806
190.1536,414.6192
192.0904,417.0647
194.0271,419.6392
196.1399,422.232
198.0767,424.7292
200.0134,427.3581
202.1263,430.0054
204.063,432.555
206.1758,435.3558
208.1126,437.9411
210.0493,440.6619
212.1621,443.4018
214.0989,446.0402
216.0356,448.8171
218.1485,451.6131
220.0852,454.3056
222.022,457.1397
224.1348,459.9935
226.0715,462.7418
228.0083,465.6346
230.1211,468.5477
232.0578,471.3536
234.1707,474.4367
236.1074,477.2829
238.0442,480.2801
240.157,483.3004
242.0937,486.209
244.0305,489.273
246.1433,492.3611
248.08,495.3377
250.0168,498.4738
252.1296,501.6359
254.0664,504.6847
256.0031,507.8984
258.1159,511.1396
260.0527,514.41
262.1655,517.7074
264.1023,520.8888
266.039,524.2432
268.1518,527.6272
270.0886,530.8918
272.0253,534.3328
274.1381,537.8012
276.0749,541.1414
278.0116,544.657
280.1245,548.1939
282.0612,551.5951
284.174,555.3256
286.1108,558.7622
288.0475,562.363
290.1603,565.9706
292.0971,569.4274
294.0338,573.0437
296.1467,576.6599
298.0834,580.1169
300.0202,583.7253
302.133,587.3258
304.0697,590.7536
306.0065,594.3208
308.1193,597.8721
310.056,601.409
312.1689,604.9322
314.1056,608.2918
316.0424,611.7974
318.1552,615.3014
320.0919,618.6569
322.0287,622.1763
324.1415,625.718
326.0783,629.1385
328.015,632.7626
330.1278,636.4506
332.0646,640.0541
334.0013,643.9257
336.1141,647.9316
338.0509,652.0887
340.1637,656.4332
342.1005,660.8158
344.0372,665.604
346.15,670.8105
348.0868,676.1898
350.0235,682.3834
352.1363,689.2339
354.0731,696.8782
356.0098,706.7551
358.1226,719.4194
360.0594,738.8779
362.1722,774.8925
364.109,798.0416
366.0457,806.6141
368.1585,813.8915
370.0953,819.4314
372.032,824.1918
374.1449,828.1956
376.0816,831.5077
378.0184,834.5709
380.1312,837.2954
382.0679,839.645
384.0047,841.878
386.1175,843.918
388.0542,845.7994
390.1671,847.5445
392.1038,849.1024
394.0406,850.6342
396.1534,852.0695
398.0901,853.363
400.0269,854.6397
402.1397,855.8474
404.0764,856.9448
406.0132,858.0353
408.126,859.0738
410.0628,860.0241
412.1756,861.0128
414.1123,861.8802
416.0491,862.7518
418.1619,863.5874
420.0986,864.3556
422.0354,865.1303
424.1482,865.8742
426.085,866.5635
428.0217,867.2582
430.1345,867.9288
432.0713,868.5514
434.008,869.1812
436.1208,869.7942
438.0576,870.3653
440.1704,870.9701
442.1072,871.5071
444.0439,872.0532
446.1567,872.5858
448.0935,873.0777
450.0302,873.5806
452.1431,874.069
454.0798,874.5234
456.0166,874.9867
458.1294,875.4394
460.0661,875.8607
462.0029,876.2898
464.1157,876.7093
466.0524,877.1173
468.1653,877.518
470.102,877.8901
472.0388,878.2728
474.1516,878.6441
476.0883,878.9952
478.0251,879.3514
480.1379,879.7013
482.0746,880.0308
484.0114,880.3651
486.1242,880.6946
488.061,881.0052
490.1738,881.3323
492.1105,881.6316
494.0473,881.9336
496.1601,882.233
498.0968,882.5144
500.0,882.7986

File: BUW-FZJ_ApproachA_Gasification_q50_Temp_R5.csv
Time,T_back_1
[s],[K]
0.0,291.67
2.1128,291.67
4.0496,291.67
6.1624,291.67
8.0991,291.67
10.0359,291.67
12.1487,291.67
14.0855,291.67
16.0222,291.6701
18.135,291.6704
20.0718,291.6714
22.0085,291.674
24.1213,291.6798
26.0581,291.6902
28.1709,291.7098
30.1077,291.7384
32.0444,291.7828
34.1572,291.8461
36.094,291.9277
38.0307,292.0391
40.1435,292.1812
42.0803,292.3489
44.017,292.5608
46.1299,292.8135
48.0666,293.0956
50.0034,293.4348
52.1162,293.8217
54.0529,294.2574
56.1657,294.7436
58.1025,295.2564
60.0392,295.8429
62.1521,296.4816
64.0888,297.141
66.0256,297.8808
68.1384,298.6721
70.0751,299.4761
72.0119,300.3652
74.1247,301.3036
76.0614,302.2456
78.1743,303.3221
80.111,304.3523
82.0478,305.4725
84.1606,306.6359
86.0973,307.7877
88.0341,309.0311
90.1469,310.3141
92.0837,311.5765
94.0204,312.9322
96.1332,314.3235
98.07,315.6865
100.0067,317.1438
102.1195,318.6335
104.0563,320.1542
106.1691,321.7053
108.1059,323.2167
110.0426,324.8245
112.1554,326.4602
114.0922,328.0499
116.0289,329.7373
118.1417,331.4504
120.0785,333.1123
122.0152,334.8734
124.1281,336.6582
126.0648,338.387
128.0016,340.2166
130.1144,342.0686
132.0511,343.9424
134.1639,345.8378
136.1007,347.6705
138.0374,349.6067
140.1503,351.5637
142.087,353.4545
144.0238,355.4506
146.1366,357.4666
148.0733,359.4132
150.0101,361.4672
152.1229,363.5406
154.0596,365.5416
156.1725,367.7444
158.1092,369.7815
160.046,371.9296
162.1588,374.0964
164.0955,376.1862
166.0323,378.3891
168.1451,380.6108
170.0818,382.7524
172.0186,385.0093
174.1314,387.2846
176.0682,389.4778
178.0049,391.7886
180.1177,394.1177
182.0545,396.4646
184.1673,398.8299
186.104,401.1093
188.0408,403.5098
190.1536,405.9288
192.0904,408.2594
194.0271,410.7135
196.1399,413.186
198.0767,415.568
200.0134,418.076
202.1263,420.6024
204.063,423.036
206.1758,425.71
208.1126,428.1789
210.0493,430.7779
212.1621,433.3956
214.0989,435.9168
216.0356,438.5706
218.1485,441.2434
220.0852,443.8181
222.022,446.5275
224.1348,449.2557
226.0715,451.8835
228.0083,454.6495
230.1211,457.435
232.0578,460.1176
234.1707,463.0651
236.1074,465.786
238.0442,468.6505
240.157,471.5356
242.0937,474.3152
244.0305,477.2415
246.1433,480.1895
248.08,483.0302
250.0168,486.0215
252.1296,489.0366
254.0664,491.9426
256.0031,495.0038
258.1159,498.0896
260.0527,501.2008
262.1655,504.3394
264.1023,507.3642
266.039,510.5536
268.1518,513.7708
270.0886,516.8745
272.0253,520.1468
274.1381,523.4484
276.0749,526.6335
278.0116,529.9918
280.1245,533.3785
282.0612,536.6433
284.174,540.2302
286.1108,543.5402
288.0475,547.0227
290.1603,550.523
292.0971,553.8892
294.0338,557.4256
296.1467,560.9737
298.0834,564.3727
300.0202,567.9318
302.133,571.4958
304.0697,574.906
306.0065,578.4699
308.1193,582.029
310.056,585.5815
312.1689,589.1205
314.1056,592.4893
316.0424,595.9958
318.1552,599.4878
320.0919,602.8147
322.0287,606.2814
324.1415,609.739
326.0783,613.0417
328.015,616.4949
330.1278,619.9557
332.0646,623.2806
334.0013,626.7815
336.1141,630.3214
338.0509,633.913
340.1637,637.5776
342.1005,641.1664
344.0372,645.0261
346.15,649.0182
348.0868,652.985
350.0235,657.3196
352.1363,661.8778
354.0731,666.4932
356.0098,671.6946
358.1226,677.2961
360.0594,683.2636
362.1722,690.6837
364.109,698.5234
366.0457,708.8485
368.1585,722.7126
370.0953,741.6576
372.032,779.1639
374.1449,798.7154
376.0816,807.3343
378.0184,814.5556
380.1312,820.2431
382.0679,824.7217
384.0047,828.6902
386.1175,832.1052
388.0542,835.1194
390.1671,837.8048
392.1038,840.1227
394.0406,842.3305
396.1534,844.348
398.0901,846.1288
400.0269,847.8576
402.1397,849.4744
404.0764,850.9267
406.0132,852.3507
408.126,853.6908
410.0628,854.9023
412.1756,856.1528
414.1123,857.2387
416.0491,858.3205
418.1619,859.35
420.0986,860.2908
422.0354,861.2317
424.1482,862.1326
426.085,862.959
428.0217,863.789
430.1345,864.5889
432.0713,865.325
434.008,866.0662
436.1208,866.7806
438.0576,867.4409
440.1704,868.1372
442.1072,868.7537
444.0439,869.3802
446.1567,869.9904
448.0935,870.5568
450.0302,871.1331
452.1431,871.6919
454.0798,872.2096
456.0166,872.7385
458.1294,873.2518
460.0661,873.7276
462.0029,874.2144
464.1157,874.6872
466.0524,875.1481
468.1653,875.595
470.102,876.0156
472.0388,876.441
474.1516,876.8593
476.0883,877.2462
478.0251,877.6438
480.1379,878.0317
482.0746,878.3945
484.0114,878.7655
486.1242,879.1292
488.061,879.4692
490.1738,879.8314
492.1105,880.1585
494.0473,880.491
496.1601,880.8194
498.0968,881.1256
500.0,881.4376

File: BUW-FZJ_ApproachB_Gasification_q50_Mass_R3.csv
Time,Mass
[s],[g]
0.0,26.6818
2.112818,26.6818
4.04957,26.6818
6.16239,26.6818
8.09914,26.6818
10.0359,26.6818
12.1487,26.6818
14.0855,26.6817
16.0222,26.6816
18.135,26.6813
20.0718,26.6806
22.0085,26.679
24.1213,26.6756
26.0581,26.6699
28.1709,26.6594
30.1077,26.6444
32.0444,26.622
34.1572,26.5917
36.094,26.5551
38.0307,26.509
40.1435,26.4551
42.0803,26.3971
44.017,26.3302
46.12986,26.2576
48.06661,26.1833
50.00336,26.1012
52.1162,26.0149
54.0529,25.9248
56.1657,25.8314
58.1025,25.7392
60.0392,25.64
62.1521,25.5382
64.0888,25.4386
66.0256,25.3323
68.1384,25.224
70.0751,25.1187
72.0119,25.0068
74.1247,24.8933
76.0614,24.7833
78.1743,24.6619
80.111,24.5493
82.0478,24.4303
84.1606,24.3101
86.0973,24.1942
88.0341,24.0719
90.1469,23.9486
92.0837,23.8298
94.0204,23.7047
96.13322,23.5788
98.06997,23.4575
100.007,23.3299
102.12,23.2016
104.056,23.0725
106.169,22.9426
108.106,22.8177
110.043,22.6865
112.155,22.5546
114.092,22.4278
116.029,22.2945
118.142,22.1606
120.078,22.0318
122.015,21.8966
124.128,21.7606
126.065,21.63
128.002,21.49265
130.114,21.3546
132.051,21.2159
134.164,21.0765
136.101,20.9426
138.037,20.8018
140.15,20.6603
142.087,20.5242
144.024,20.3813
146.137,20.2377
148.073,20.0996
150.01,19.9545
152.1229,19.8086
154.06,19.6685
156.172,19.5148
158.109,19.3731
160.046,19.2243
162.159,19.0748
164.096,18.931
166.032,18.7799
168.1451,18.628
170.082,18.482
172.0186,18.3286
174.131,18.1744
176.068,18.026
178.005,17.87019
180.118,17.7135
182.054,17.5559
184.1673,17.3975
186.104,17.2451
188.0408,17.0849
190.154,16.9239
192.09,16.769
194.027,16.6061
196.14,16.4424
198.077,16.2848
200.013,16.1191
202.126,15.9524
204.063,15.792
206.176,15.616
208.113,15.4537
210.049,15.2829
212.162,15.1111
214.099,14.9457
216.036,14.7718
218.148,14.5967
220.085,14.4281
222.022,14.2506
224.135,14.072
226.072,13.9
228.008,13.7189
230.1211,13.5366
232.058,13.3609
234.171,13.168
236.107,12.9897
238.044,12.802
240.157,12.6128
242.094,12.4305
244.03,12.2384
246.1433,12.0448
248.08,11.8581
250.0168,11.6614
252.13,11.463
254.066,11.2716
256.003,11.0698
258.116,10.8662
260.053,10.6609
262.1655,10.4536
264.102,10.2536
266.039,10.0426
268.152,9.82961
270.089,9.62402
272.025,9.40712
274.138,9.18816
276.075,8.9768
278.012,8.75382
280.124,8.52875
282.061,8.31154
284.174,8.07245
286.111,7.85136
288.048,7.61829
290.16,7.38328
292.097,7.15675
294.034,6.91815
296.147,6.67781
298.083,6.44636
300.02,6.20285
302.133,5.95783
304.07,5.72214
306.006,5.47442
308.1193,5.22542
310.056,4.97525
312.169,4.72394
314.106,4.48259
316.042,4.2293
318.155,3.97509
320.092,3.73115
322.029,3.47537
324.1415,3.21891
326.078,2.97306
328.015,2.71559
330.128,2.45781
332.065,2.21113
334.001,1.95338
336.114,1.69614
338.051,1.43994
340.1637,1.18558
342.1,0.945154
344.0372,0.698712
346.15,0.461347
348.087,0.250403
350.024,0.068694
352.136,0.00022
354.073,3.46945e-15
356.01,3.46945e-15
358.123,3.46945e-15
360.0594,3.46945e-15
362.172,3.46945e-15
364.109,3.46945e-15
366.046,3.46945e-15
368.159,3.46945e-15
370.095,3.46945e-15
372.032,3.46945e-15
374.145,3.46945e-15
376.082,3.46945e-15
378.018,3.46945e-15
380.131,3.46945e-15
382.068,3.46945e-15
384.005,3.46945e-15
386.117,3.46945e-15
388.054,3.46945e-15
390.167,3.46945e-15
392.104,3.46945e-15
394.041,3.46945e-15
396.153,3.46945e-15
398.09,3.46945e-15
400.027,3.46945e-15
402.1397,3.46945e-15
404.076,3.46945e-15
406.0132,3.46945e-15
408.126,3.46945e-15
410.063,3.46945e-15
412.176,3.46945e-15
414.112,3.46945e-15
416.049,3.46945e-15
418.1619,3.46945e-15
420.099,3.46945e-15
422.0354,3.46945e-15
424.148,3.46945e-15
426.085,3.46945e-15
428.022,3.46945e-15
430.135,3.46945e-15
432.071,3.46945e-15
434.008,3.46945e-15
436.121,3.46945e-15
438.0576,3.46945e-15
440.17,3.46945e-15
442.107,3.46945e-15
444.044,3.46945e-15
446.157,3.46945e-15
448.093,3.46945e-15
450.03,3.46945e-15
452.143,3.46945e-15
454.08,3.46945e-15
456.017,3.46945e-15
458.129,3.46945e-15
460.066,3.46945e-15
462.003,3.46945e-15
464.116,3.46945e-15
466.052,3.46945e-15
468.165,3.46945e-15
470.102,3.46945e-15
472.039,3.46945e-15
474.152,3.46945e-15
476.088,3.46945e-15
478.025,3.46945e-15
480.1379,3.46945e-15
482.075,3.46945e-15
484.0114,3.46945e-15
486.124,3.46945e-15
488.061,3.46945e-15
490.174,3.46945e-15
492.111,3.46945e-15
494.047,3.46945e-15
496.1601,3.46945e-15
498.097,3.46945e-15
500.0,3.46945e-15

File: BUW-FZJ_ApproachB_Gasification_q50_Mass_R4.csv
Time,Mass
[s],[g]
0.0,25.5512
2.112818,25.5512
4.04957,25.5512
6.16239,25.5512
8.09914,25.5512
10.0359,25.5512
12.1487,25.5512
14.0855,25.55115
16.0222,25.551
18.135,25.5507
20.0718,25.55
22.0085,25.5484
24.1213,25.54506
26.0581,25.5393
28.1709,25.5288
30.1077,25.5138
32.0444,25.4914
34.1572,25.4611
36.094,25.4245
38.0307,25.3784
40.1435,25.3246
42.0803,25.2665
44.017,25.1996
46.12986,25.127
48.06661,25.0527
50.00336,24.9706
52.1162,24.8843
54.0529,24.7943
56.1657,24.7008
58.1025,24.6086
60.0392,24.5094
62.1521,24.4075
64.0888,24.3079
66.0256,24.2016
68.1384,24.0933
70.0751,23.9879
72.0119,23.876
74.1247,23.7625
76.0614,23.6524
78.1743,23.5309
80.111,23.4181
82.0478,23.299
84.1606,23.1787
86.0973,23.0626
88.0341,22.9401
90.1469,22.8166
92.0837,22.69755
94.0204,22.5722
96.13322,22.4458
98.06997,22.3242
100.007,22.1962
102.12,22.0674
104.056,21.9377
106.169,21.8073
108.106,21.6818
110.043,21.5499
112.155,21.4172
114.092,21.2896
116.029,21.1555
118.142,21.0206
120.078,20.8908
122.015,20.7545
124.128,20.6173
126.065,20.4854
128.002,20.3467
130.114,20.2073
132.051,20.067
134.164,19.926
136.101,19.7904
138.037,19.6478
140.15,19.5044
142.087,19.3664
144.024,19.2214
146.137,19.0755
148.073,18.9352
150.01,18.7877
152.1229,18.6394
154.06,18.4967
156.172,18.3401
158.109,18.1958
160.046,18.044
162.159,17.8913
164.096,17.7444
166.032,17.59
168.1451,17.4347
170.082,17.2853
172.0186,17.1281
174.131,16.97
176.068,16.8179
178.005,16.6579
180.118,16.4969
182.054,16.3349
184.1673,16.1719
186.104,16.015
188.0408,15.85
190.154,15.6839
192.09,15.5241
194.027,15.3559
196.14,15.1866
198.077,15.0236
200.013,14.852
202.126,14.6793
204.063,14.513
206.176,14.3303
208.113,14.1616
210.049,13.9841
212.162,13.8052
214.099,13.633
216.036,13.4515
218.148,13.2687
220.085,13.0925
222.022,12.907
224.135,12.7199
226.072,12.5396
228.008,12.3496
230.1211,12.1581
232.058,11.9734
234.171,11.7702
236.107,11.5824
238.044,11.3843
240.157,11.1844
242.094,10.9915
244.03,10.7881
246.1433,10.5828
248.08,10.3847
250.0168,10.1756
252.13,9.96451
254.066,9.76072
256.003,9.54566
258.116,9.3285
260.053,9.10926
262.1655,8.88788
264.102,8.67415
266.039,8.44864
268.152,8.220994
270.089,8.0013
272.025,7.76961
274.138,7.5359
276.075,7.31052
278.012,7.07304
280.124,6.833703
282.061,6.60314
284.174,6.34986
286.111,6.11617
288.048,5.870362
290.16,5.62312
292.097,5.38538
294.034,5.13559
296.147,4.88461
298.083,4.64348
300.02,4.39038
302.133,4.13629
304.07,3.8924
306.006,3.63659
308.1193,3.38003
310.056,3.12282
312.169,2.86505
314.106,2.61809
316.042,2.35966
318.155,2.10119
320.092,1.85421
322.029,1.59665
324.1415,1.34041
326.078,1.09733
328.015,0.846775
330.128,0.60252
332.065,0.37961
334.001,0.169066
336.114,0.021626
338.051,0.0
340.1637,0.0
342.1,0.0
344.0372,0.0
346.15,0.0
348.087,0.0
350.024,0.0
352.136,0.0
354.073,0.0
356.01,0.0
358.123,0.0
360.0594,0.0
362.172,0.0
364.109,0.0
366.046,0.0
368.159,0.0
370.095,0.0
372.032,0.0
374.145,0.0
376.082,0.0
378.018,0.0
380.131,0.0
382.068,0.0
384.005,0.0
386.117,0.0
388.054,0.0
390.167,0.0
392.104,0.0
394.041,0.0
396.153,0.0
398.09,0.0
400.027,0.0
402.1397,0.0
404.076,0.0
406.0132,0.0
408.126,0.0
410.063,0.0
412.176,0.0
414.112,0.0
416.049,0.0
418.1619,0.0
420.099,0.0
422.0354,0.0
424.148,0.0
426.085,0.0
428.022,0.0
430.135,0.0
432.071,0.0
434.008,0.0
436.121,0.0
438.0576,0.0
440.17,0.0
442.107,0.0
444.044,0.0
446.157,0.0
448.093,0.0
450.03,0.0
452.143,0.0
454.08,0.0
456.017,0.0
458.129,0.0
460.066,0.0
462.003,0.0
464.116,0.0
466.052,0.0
468.165,0.0
470.102,0.0
472.039,0.0
474.152,0.0
476.088,0.0
478.025,0.0
480.1379,0.0
482.075,0.0
484.0114,0.0
486.124,0.0
488.061,0.0
490.174,0.0
492.111,0.0
494.047,0.0
496.1601,0.0
498.097,0.0
500.0,0.0

File: BUW-FZJ_ApproachB_Gasification_q50_Mass_R5.csv
Time,Mass
[s],[g]
0.0,28.0385
2.112818,28.0385
4.04957,28.0385
6.16239,28.0385
8.09914,28.0385
10.0359,28.0385
12.1487,28.0385
14.0855,28.0384
16.0222,28.0383
18.135,28.038
20.0718,28.0373
22.0085,28.0357
24.1213,28.0323
26.0581,28.0266
28.1709,28.0161
30.1077,28.0011
32.0444,27.9787
34.1572,27.9484
36.094,27.9118
38.0307,27.8657
40.1435,27.8118
42.0803,27.7538
44.017,27.6869
46.12986,27.6143
48.06661,27.54
50.00336,27.4579
52.1162,27.3716
54.0529,27.2815
56.1657,27.1881
58.1025,27.0959
60.0392,26.9967
62.1521,26.8949
64.0888,26.7953
66.0256,26.6891
68.1384,26.5808
70.0751,26.4754
72.0119,26.3636
74.1247,26.2502
76.0614,26.1402
78.1743,26.0188
80.111,25.9063
82.0478,25.7874
84.1606,25.6673
86.0973,25.5515
88.0341,25.4294
90.1469,25.30625
92.0837,25.1876
94.0204,25.0627
96.13322,24.937
98.06997,24.816
100.007,24.6888
102.12,24.5608
104.056,24.4321
106.169,24.3027
108.106,24.1783
110.043,24.0476
112.155,23.9162
114.092,23.79
116.029,23.6575
118.142,23.5243
120.078,23.3964
122.015,23.262
124.128,23.1271
126.065,22.9974
128.002,22.8613
130.114,22.7245
132.051,22.5871
134.164,22.4491
136.101,22.3165
138.037,22.1773
140.15,22.0375
142.087,21.9031
144.024,21.762
146.137,21.6203
148.073,21.4842
150.01,21.3413
152.1229,21.1977
154.06,21.0598
156.172,20.9086
158.109,20.7695
160.046,20.6234
162.159,20.4766
164.096,20.3356
166.032,20.1876
168.1451,20.0389
170.082,19.896
172.0186,19.746
174.131,19.5954
176.068,19.45058
178.005,19.2985
180.118,19.1458
182.054,18.9923
184.1673,18.8382
186.104,18.69
188.0408,18.5344
190.154,18.378
192.09,18.2277
194.027,18.0699
196.14,17.9113
198.077,17.7588
200.013,17.5987
202.126,17.4377
204.063,17.2829
206.176,17.1132
208.113,16.9568
210.049,16.7925
212.162,16.6272
214.099,16.4684
216.036,16.3014
218.148,16.1335
220.085,15.9721
222.022,15.8023
224.135,15.6316
226.072,15.4673
228.008,15.2946
230.1211,15.1209
232.058,14.9537
234.171,14.7703
236.107,14.6011
238.044,14.4231
240.157,14.2439
242.094,14.0715
244.03,13.89
246.1433,13.7073
248.08,13.5314
250.0168,13.3462
252.13,13.1597
254.066,12.9802
256.003,12.7911
258.116,12.6006
260.053,12.4087
262.1655,12.2152
264.102,12.0288
266.039,11.8324
268.152,11.6344
270.089,11.4435
272.025,11.2423
274.138,11.0394
276.075,10.8437
278.012,10.6373
280.124,10.4291
282.061,10.2283
284.174,10.0071
286.111,9.80261
288.048,9.586886
290.16,9.36917
292.097,9.15906
294.034,8.937442
296.147,8.71379
298.083,8.497992
300.02,8.27043
302.133,8.04088
304.07,7.81948
306.006,7.58616
308.1193,7.35097
310.056,7.11398
312.169,6.87524
314.106,6.64532
316.042,6.40339
318.155,6.15992
320.092,5.925692
322.029,5.67948
324.1415,5.43196
326.078,5.19407
328.015,4.94425
330.128,4.69334
332.065,4.45239
334.001,4.19956
336.114,3.94585
338.051,3.69132
340.1637,3.43606
342.1,3.19131
344.0372,2.93489
346.15,2.67806
348.087,2.43214
350.024,2.17498
352.136,1.91805
354.073,1.67285
356.01,1.41759
358.123,1.16432
360.0594,0.925067
362.172,0.669672
364.109,0.444797
366.046,0.227744
368.159,0.055035
370.095,0.000121
372.032,-3.46945e-15
374.145,-3.46945e-15
376.082,-3.46945e-15
378.018,-3.46945e-15
380.131,-3.46945e-15
382.068,-3.46945e-15
384.005,-3.46945e-15
386.117,-3.46945e-15
388.054,-3.46945e-15
390.167,-3.46945e-15
392.104,-3.46945e-15
394.041,-3.46945e-15
396.153,-3.46945e-15
398.09,-3.46945e-15
400.027,-3.46945e-15
402.1397,-3.46945e-15
404.076,-3.46945e-15
406.0132,-3.46945e-15
408.126,-3.46945e-15
410.063,-3.46945e-15
412.176,-3.46945e-15
414.112,-3.46945e-15
416.049,-3.46945e-15
418.1619,-3.46945e-15
420.099,-3.46945e-15
422.0354,-3.46945e-15
424.148,-3.46945e-15
426.085,-3.46945e-15
428.022,-3.46945e-15
430.135,-3.46945e-15
432.071,-3.46945e-15
434.008,-3.46945e-15
436.121,-3.46945e-15
438.0576,-3.46945e-15
440.17,-3.46945e-15
442.107,-3.46945e-15
444.044,-3.46945e-15
446.157,-3.46945e-15
448.093,-3.46945e-15
450.03,-3.46945e-15
452.143,-3.46945e-15
454.08,-3.46945e-15
456.017,-3.46945e-15
458.129,-3.46945e-15
460.066,-3.46945e-15
462.003,-3.46945e-15
464.116,-3.46945e-15
466.052,-3.46945e-15
468.165,-3.46945e-15
470.102,-3.46945e-15
472.039,-3.46945e-15
474.152,-3.46945e-15
476.088,-3.46945e-15
478.025,-3.46945e-15
480.1379,-3.46945e-15
482.075,-3.46945e-15
484.0114,-3.46945e-15
486.124,-3.46945e-15
488.061,-3.46945e-15
490.174,-3.46945e-15
492.111,-3.46945e-15
494.047,-3.46945e-15
496.1601,-3.46945e-15
498.097,-3.46945e-15
500.0,-3.46945e-15

File: BUW-FZJ_ApproachB_Gasification_q50_MLR_R3.csv
Time,MLR
[s],[g/m2/s]
0.0,0.0
2.112818,8.63347e-11
4.04957,5.54695e-08
6.16239,2.922108e-06
8.09914,4.07359e-05
10.0359,0.00033116
12.1487,0.00179197
14.0855,0.00674623
16.0222,0.0216753
18.135,0.059189
20.0718,0.135818
22.0085,0.28931
24.1213,0.559925
26.0581,0.966997
28.1709,1.60799
30.1077,2.376068
32.0444,3.32667
34.1572,4.36472
36.094,5.373725
38.0307,6.39205
40.1435,7.33899
42.0803,8.16535
44.017,8.94494
46.12986,9.64288
48.06661,10.2425
50.00336,10.8066
52.1162,11.3143
54.0529,11.7735
56.1657,12.19004
58.1025,12.55383
60.0392,12.9023
62.1521,13.2218
64.0888,13.5036
66.0256,13.7759
68.1384,14.0277
70.0751,14.2515
72.0119,14.4694
74.1247,14.6724
76.0614,14.8539
78.1743,15.0393
80.111,15.1987
82.0478,15.3555
84.1606,15.5033
86.0973,15.6369
88.0341,15.7694
90.1469,15.8952
92.0837,16.0098
94.0204,16.1244
96.13322,16.2341
98.06997,16.3351
100.007,16.4369
102.12,16.5355
104.056,16.6312
106.169,16.7245
108.106,16.8119
110.043,16.9017
112.155,16.9902
114.092,17.074
116.029,17.1609
118.142,17.2475
120.078,17.3301
122.015,17.4166
124.128,17.5033
126.065,17.5955
128.002,17.6819
130.114,17.7705
132.051,17.8602
134.164,17.9516
136.101,18.0394
138.037,18.1309
140.15,18.2232
142.087,18.3116
144.024,18.4054
146.137,18.4992
148.073,18.5901
150.01,18.6839
152.1229,18.7792
154.06,18.8708
156.172,18.9719
158.109,19.0652
160.046,19.1633
162.159,19.262
164.096,19.3562
166.032,19.45627
168.1451,19.5581
170.082,19.6565
172.0186,19.7598
174.131,19.8648
176.068,19.9668
178.005,20.0746
180.118,20.1839
182.054,20.2958
184.1673,20.4071
186.104,20.5153
188.0408,20.6299
190.154,20.7454
192.09,20.85738
194.027,20.9774
196.14,21.0998
198.077,21.21837
200.013,21.345
202.126,21.4743
204.063,21.5984
206.176,21.7361
208.113,21.8652
210.049,22.00105
212.162,22.1383
214.099,22.27295
216.036,22.4181
218.148,22.56605
220.085,22.7123
222.022,22.8664
224.135,23.0224
226.072,23.1757
228.008,23.3377
230.1211,23.503
232.058,23.6641
234.171,23.8463
236.107,24.0173
238.044,24.2028
240.157,24.3908
242.094,24.5727
244.03,24.7681
246.1433,24.9697
248.08,25.166
250.0168,25.3759
252.13,25.5876
254.066,25.8021
256.003,26.0303
258.116,26.2612
260.053,26.4976
262.1655,26.7388
264.102,26.9749
266.039,27.2253
268.152,27.4798
270.089,27.7266
272.025,27.988
274.138,28.2519
276.075,28.5055
278.012,28.7709
280.124,29.0371
282.061,29.2904
284.174,29.5629
286.111,29.8086
288.048,30.0598
290.16,30.304
292.097,30.5299
294.034,30.7597
296.147,30.9779
298.083,31.1775
300.02,31.3775
302.133,31.565
304.07,31.7362
306.006,31.9036
308.1193,32.0617
310.056,32.2101
312.169,32.3505
314.106,32.4756
316.042,32.5975
318.155,32.7117
320.092,32.8111
322.029,32.9057
324.1415,32.9859
326.078,33.0515
328.015,33.1024
330.128,33.1312
332.065,33.13265
334.001,33.0946
336.114,33.0021
338.051,32.8233
340.1637,32.5323
342.1,32.069
344.0372,31.2427
346.15,29.72928
348.087,26.8371
350.024,19.1327
352.136,0.727643
354.073,0.0
356.01,0.0
358.123,0.0
360.0594,0.0
362.172,0.0
364.109,0.0
366.046,0.0
368.159,0.0
370.095,0.0
372.032,0.0
374.145,0.0
376.082,0.0
378.018,0.0
380.131,0.0
382.068,0.0
384.005,0.0
386.117,0.0
388.054,0.0
390.167,0.0
392.104,0.0
394.041,0.0
396.153,0.0
398.09,0.0
400.027,0.0
402.1397,0.0
404.076,0.0
406.0132,0.0
408.126,0.0
410.063,0.0
412.176,0.0
414.112,0.0
416.049,0.0
418.1619,0.0
420.099,0.0
422.0354,0.0
424.148,0.0
426.085,0.0
428.022,0.0
430.135,0.0
432.071,0.0
434.008,0.0
436.121,0.0
438.0576,0.0
440.17,0.0
442.107,0.0
444.044,0.0
446.157,0.0
448.093,0.0
450.03,0.0
452.143,0.0
454.08,0.0
456.017,0.0
458.129,0.0
460.066,0.0
462.003,0.0
464.116,0.0
466.052,0.0
468.165,0.0
470.102,0.0
472.039,0.0
474.152,0.0
476.088,0.0
478.025,0.0
480.1379,0.0
482.075,0.0
484.0114,0.0
486.124,0.0
488.061,0.0
490.174,0.0
492.111,0.0
494.047,0.0
496.1601,0.0
498.097,0.0
500.0,0.0