Folder: matl-db/PMMA/Validation_Results/BUW-FZJ (part 7)

File: BUW-FZJ_ApproachB_Gasification_q50_Temp_R5.csv
Time,T_back_1
[s],[K]
0.0,291.67
2.112818,291.67
4.04957,291.67
6.16239,291.67
8.09914,291.67
10.0359,291.67
12.1487,291.67
14.0855,291.67
16.0222,291.671
18.135,291.674
20.0718,291.68
22.0085,291.695
24.1213,291.723
26.0581,291.767
28.1709,291.842
30.1077,291.942
32.0444,292.086
34.1572,292.276
36.094,292.507
38.0307,292.806
40.1435,293.168
42.0803,293.577
44.017,294.074
46.12986,294.644
48.06661,295.259
50.00336,295.976
52.1162,296.77
54.0529,297.639
56.1657,298.585
58.1025,299.558
60.0392,300.646
62.1521,301.806
64.0888,302.978
66.0256,304.269
68.1384,305.623
70.0751,306.975
72.0119,308.446
74.1247,309.972
76.0614,311.481
78.1743,313.179
80.111,314.781
82.0478,316.499
84.1606,318.26
86.0973,319.982
88.0341,321.819
90.1469,323.692
92.0837,325.514
94.0204,327.45
96.13322,329.417
98.06997,331.324
100.007,333.344
102.12,335.389
104.056,337.458
106.169,339.549
108.106,341.569
110.043,343.701
112.155,345.852
114.092,347.927
116.029,350.113
118.142,352.315
120.078,354.437
122.015,356.669
124.128,358.916
126.065,361.079
128.002,363.352
130.114,365.64
132.051,367.939
134.164,370.251
136.101,372.473
138.037,374.807
140.15,377.152
142.087,379.405
144.024,381.7702
146.137,384.146
148.073,386.428
150.01,388.823
152.1229,391.228
154.06,393.538
156.172,396.067
158.109,398.394
160.046,400.837
162.159,403.288
164.096,405.642
166.032,408.111
168.1451,410.589
170.082,412.968
172.0186,415.464
174.131,417.969
176.068,420.373
178.005,422.896
180.118,425.428
182.054,427.969
184.1673,430.519
186.104,432.967
188.0408,435.536
190.154,438.1131
192.09,440.587
194.027,443.1819
196.14,445.786
198.077,448.2861
200.013,450.909
202.126,453.541
204.063,456.068
206.176,458.834
208.113,461.378
210.049,464.048
212.162,466.727
214.099,469.297
216.036,471.994
218.148,474.7
220.085,477.2975
222.022,480.022
224.135,482.756
226.072,485.38
228.008,488.132
230.1211,490.893
232.058,493.542
234.171,496.4402
236.107,499.105
238.044,501.899
240.157,504.701
242.094,507.389
244.03,510.207
246.1433,513.0314
248.08,515.739
250.0168,518.576
252.13,521.419
254.066,524.142
256.003,526.993
258.116,529.848
260.053,532.706
262.1655,535.566
264.102,538.301
266.039,541.158
268.152,544.0127
270.089,546.738
272.025,549.582
274.138,552.418
276.075,555.123
278.012,557.941
280.124,560.742
282.061,563.406
284.174,566.296
286.111,568.926
288.048,571.654
290.16,574.359
292.097,576.922
294.034,579.574
296.147,582.195
298.083,584.669
300.02,587.221
302.133,589.738
304.07,592.113
306.006,594.563
308.1193,596.981
310.056,599.368
312.169,601.729
314.106,603.964
316.042,606.284
318.155,608.591
320.092,610.793
322.029,613.095
324.1415,615.407
326.078,617.635
328.015,619.991
330.128,622.385
332.065,624.72
334.001,627.22
336.114,629.792
338.051,632.448
340.1637,635.204
342.1,637.951
344.0372,640.957
346.15,644.125
348.087,647.332
350.024,650.9024
352.136,654.74
354.073,658.706
356.01,663.234
358.123,668.262
360.0594,673.658
362.172,680.447
364.109,687.868
366.046,697.504
368.159,710.82
370.095,731.722
372.032,778.003
374.145,824.098
376.082,849.578
378.018,866.243
380.131,877.139
382.068,884.426
384.005,889.998
386.117,894.197
388.054,897.501
390.167,900.178
392.104,902.322
394.041,904.2395
396.153,905.906
398.09,907.323
400.027,908.653
402.1397,909.849
404.076,910.889
406.0132,911.885
408.126,912.8
410.063,913.61
412.176,914.43
414.112,915.131
416.049,915.817
418.1619,916.461
420.099,917.043
422.0354,917.618
424.148,918.1616
426.085,918.6554
428.022,919.147
430.135,919.616
432.071,920.043
434.008,920.471
436.121,920.881
438.0576,921.257
440.17,921.6503
442.107,921.996
444.044,922.346
446.157,922.681
448.093,922.991
450.03,923.305
452.143,923.6071
454.08,923.887
456.017,924.17
458.129,924.4444
460.066,924.698
462.003,924.957
464.116,925.207
466.052,925.45
468.165,925.687
470.102,925.909
472.039,926.135
474.152,926.357
476.088,926.564
478.025,926.774
480.1379,926.98
482.075,927.172
484.0114,927.368
486.124,927.558
488.061,927.736
490.174,927.927
492.111,928.095
494.047,928.2694
496.1601,928.439
498.097,928.597
500.0,928.757

File: BUW-FZJ_B_Gasification_q50_Mass_R5.csv
Time,Mass
[s],[g]
0.0,28.0385
2.1128,28.0385
4.0496,28.0385
6.1624,28.0385
8.0991,28.0385
10.0359,28.0385
12.1487,28.0385
14.0855,28.0384
16.0222,28.0383
18.135,28.038
20.0718,28.0373
22.0085,28.0357
24.1213,28.0323
26.0581,28.0266
28.1709,28.0161
30.1077,28.0011
32.0444,27.9787
34.1572,27.9484
36.094,27.9118
38.0307,27.8657
40.1435,27.8118
42.0803,27.7538
44.017,27.6869
46.1299,27.6143
48.0666,27.54
50.0034,27.4579
52.1162,27.3716
54.0529,27.2815
56.1657,27.1881
58.1025,27.0959
60.0392,26.9967
62.1521,26.8949
64.0888,26.7953
66.0256,26.6891
68.1384,26.5808
70.0751,26.4754
72.0119,26.3636
74.1247,26.2502
76.0614,26.1402
78.1743,26.0188
80.111,25.9063
82.0478,25.7874
84.1606,25.6673
86.0973,25.5515
88.0341,25.4294
90.1469,25.3062
92.0837,25.1876
94.0204,25.0627
96.1332,24.937
98.07,24.816
100.0067,24.6888
102.1195,24.5608
104.0563,24.4321
106.1691,24.3027
108.1059,24.1783
110.0426,24.0476
112.1554,23.9162
114.0922,23.79
116.0289,23.6575
118.1417,23.5243
120.0785,23.3964
122.0152,23.262
124.1281,23.1271
126.0648,22.9974
128.0016,22.8613
130.1144,22.7245
132.0511,22.5871
134.1639,22.4491
136.1007,22.3165
138.0374,22.1773
140.1503,22.0375
142.087,21.9031
144.0238,21.762
146.1366,21.6203
148.0733,21.4842
150.0101,21.3413
152.1229,21.1977
154.0596,21.0598
156.1725,20.9086
158.1092,20.7695
160.046,20.6234
162.1588,20.4766
164.0955,20.3356
166.0323,20.1876
168.1451,20.0389
170.0818,19.896
172.0186,19.746
174.1314,19.5954
176.0682,19.4506
178.0049,19.2985
180.1177,19.1458
182.0545,18.9923
184.1673,18.8382
186.104,18.69
188.0408,18.5344
190.1536,18.378
192.0904,18.2277
194.0271,18.0699
196.1399,17.9113
198.0767,17.7588
200.0134,17.5987
202.1263,17.4377
204.063,17.2829
206.1758,17.1132
208.1126,16.9568
210.0493,16.7925
212.1621,16.6272
214.0989,16.4684
216.0356,16.3014
218.1485,16.1335
220.0852,15.9721
222.022,15.8023
224.1348,15.6316
226.0715,15.4673
228.0083,15.2946
230.1211,15.1209
232.0578,14.9537
234.1707,14.7703
236.1074,14.6011
238.0442,14.4231
240.157,14.2439
242.0937,14.0715
244.0305,13.89
246.1433,13.7073
248.08,13.5314
250.0168,13.3462
252.1296,13.1597
254.0664,12.9802
256.0031,12.7911
258.1159,12.6006
260.0527,12.4087
262.1655,12.2152
264.1023,12.0288
266.039,11.8324
268.1518,11.6344
270.0886,11.4435
272.0253,11.2423
274.1381,11.0394
276.0749,10.8437
278.0116,10.6373
280.1245,10.4291
282.0612,10.2283
284.174,10.0071
286.1108,9.8026
288.0475,9.5869
290.1603,9.3692
292.0971,9.1591
294.0338,8.9374
296.1467,8.7138
298.0834,8.498
300.0202,8.2704
302.133,8.0409
304.0697,7.8195
306.0065,7.5862
308.1193,7.351
310.056,7.114
312.1689,6.8752
314.1056,6.6453
316.0424,6.4034
318.1552,6.1599
320.0919,5.9257
322.0287,5.6795
324.1415,5.432
326.0783,5.1941
328.015,4.9443
330.1278,4.6933
332.0646,4.4524
334.0013,4.1996
336.1141,3.9458
338.0509,3.6913
340.1637,3.4361
342.1005,3.1913
344.0372,2.9349
346.15,2.6781
348.0868,2.4321
350.0235,2.175
352.1363,1.9181
354.0731,1.6729
356.0098,1.4176
358.1226,1.1643
360.0594,0.9251
362.1722,0.6697
364.109,0.4448
366.0457,0.2277
368.1585,0.055
370.0953,0.0001
372.032,-0.0
374.1449,-0.0
376.0816,-0.0
378.0184,-0.0
380.1312,-0.0
382.0679,-0.0
384.0047,-0.0
386.1175,-0.0
388.0542,-0.0
390.1671,-0.0
392.1038,-0.0
394.0406,-0.0
396.1534,-0.0
398.0901,-0.0
400.0269,-0.0
402.1397,-0.0
404.0764,-0.0
406.0132,-0.0
408.126,-0.0
410.0628,-0.0
412.1756,-0.0
414.1123,-0.0
416.0491,-0.0
418.1619,-0.0
420.0986,-0.0
422.0354,-0.0
424.1482,-0.0
426.085,-0.0
428.0217,-0.0
430.1345,-0.0
432.0713,-0.0
434.008,-0.0
436.1208,-0.0
438.0576,-0.0
440.1704,-0.0
442.1072,-0.0
444.0439,-0.0
446.1567,-0.0
448.0935,-0.0
450.0302,-0.0
452.1431,-0.0
454.0798,-0.0
456.0166,-0.0
458.1294,-0.0
460.0661,-0.0
462.0029,-0.0
464.1157,-0.0
466.0524,-0.0
468.1653,-0.0
470.102,-0.0
472.0388,-0.0
474.1516,-0.0
476.0883,-0.0
478.0251,-0.0
480.1379,-0.0
482.0746,-0.0
484.0114,-0.0
486.1242,-0.0
488.061,-0.0
490.1738,-0.0
492.1105,-0.0
494.0473,-0.0
496.1601,-0.0
498.0968,-0.0
500.0,-0.0

File: BUW-FZJ_B_Gasification_q50_Temp_R1.csv
Time,T_back_1
[s],[K]
0.0,290.65
2.1128,290.65
4.0496,290.65
6.1624,290.65
8.0991,290.65
10.0359,290.6501
12.1487,290.651
14.0855,290.6552
16.0222,290.6689
18.135,290.7023
20.0718,290.7646
22.0085,290.8762
24.1213,291.0515
26.0581,291.2922
28.1709,291.6506
30.1077,292.0779
32.0444,292.6345
34.1572,293.3116
36.094,294.0753
38.0307,294.9979
40.1435,296.05
42.0803,297.1757
44.017,298.4758
46.1299,299.9004
48.0666,301.3747
50.0034,303.0283
52.1162,304.7926
54.0529,306.6605
56.1657,308.6273
58.1025,310.5944
60.0392,312.7346
62.1521,314.9551
64.0888,317.1477
66.0256,319.5061
68.1384,321.9272
70.0751,324.2961
72.0119,326.8234
74.1247,329.3984
76.0614,331.9015
78.1743,334.6728
80.111,337.247
82.0478,339.9692
84.1606,342.7204
86.0973,345.3762
88.0341,348.1756
90.1469,350.9963
92.0837,353.7121
94.0204,356.5682
96.1332,359.4399
98.07,362.1998
100.0067,365.0975
102.1195,368.0067
104.0563,370.9262
106.1691,373.8552
108.1059,376.6647
110.0426,379.6096
112.1554,382.5615
114.0922,385.3911
116.0289,388.3552
118.1417,391.3249
120.0785,394.1711
122.0152,397.1511
124.1281,400.1357
126.0648,402.9944
128.0016,405.9872
130.1144,408.9837
132.0511,411.9839
134.1639,414.9878
136.1007,417.8643
138.0374,420.8749
140.1503,423.8889
142.087,426.775
144.0238,429.7956
146.1366,432.8197
148.0733,435.7155
150.0101,438.7463
152.1229,441.7805
154.0596,444.6863
156.1725,447.8599
158.1092,450.7724
160.046,453.8208
162.1588,456.8729
164.0955,459.7953
166.0323,462.8542
168.1451,465.9169
170.0818,468.8499
172.0186,471.9199
174.1314,474.9936
176.0682,477.9374
178.0049,481.019
180.1177,484.1042
182.0545,487.1929
184.1673,490.2851
186.104,493.2459
188.0408,496.3442
190.1536,499.445
192.0904,502.4136
194.0271,505.5196
196.1399,508.6284
198.0767,511.6037
200.0134,514.7153
202.1263,517.8279
204.063,520.8053
206.1758,524.0528
208.1126,527.0277
210.0493,530.136
212.1621,533.2415
214.0989,536.2082
216.0356,539.303
218.1485,542.3883
220.0852,545.332
222.022,548.3962
224.1348,551.447
226.0715,554.3512
228.0083,557.3719
230.1211,560.3732
232.0578,563.2208
234.1707,566.302
236.1074,569.1014
238.0442,571.9998
240.157,574.867
242.0937,577.578
244.0305,580.3778
246.1433,583.1394
248.08,585.742
250.0168,588.4193
252.1296,591.0536
254.0664,593.5335
256.0031,596.0868
258.1159,598.6014
260.0527,601.0818
262.1655,603.5306
264.1023,605.8496
266.039,608.2546
268.1518,610.648
270.0886,612.9334
272.0253,615.3272
274.1381,617.736
276.0749,620.0629
278.0116,622.5309
280.1245,625.0477
282.0612,627.5111
284.174,630.2763
286.1108,632.8965
288.0475,635.7371
290.1603,638.7008
292.0971,641.6711
294.0338,644.943
296.1467,648.4174
298.0834,651.9642
300.0202,655.9509
302.133,660.2895
304.0697,664.8417
306.0065,670.1366
308.1193,676.1583
310.056,683.1942
312.1689,691.7469
314.1056,702.2854
316.0424,718.4621
318.1552,750.4931
320.0919,806.6958
322.0287,843.0711
324.1415,863.3505
326.0783,875.4462
328.015,883.9087
330.1278,889.8424
332.0646,894.0691
334.0013,897.5078
336.1141,900.2628
338.0509,902.5487
340.1637,904.4839
342.1005,906.0924
344.0372,907.585
346.15,908.9189
348.0868,910.0714
350.0235,911.1667
352.1363,912.1662
354.0731,913.0453
356.0098,913.8955
358.1226,914.684
360.0594,915.3882
362.1722,916.1065
364.109,916.724
366.0457,917.3334
368.1585,917.9086
370.0953,918.4294
372.032,918.946
374.1449,919.4374
376.0816,919.8858
378.0184,920.333
380.1312,920.7607
382.0679,921.1525
384.0047,921.5452
386.1175,921.9223
388.0542,922.2836
390.1671,922.6332
392.1038,922.953
394.0406,923.2779
396.1534,923.5903
398.0901,923.8786
400.0269,924.1713
402.1397,924.4536
404.0764,924.7161
406.0132,924.9806
408.126,925.2387
410.0628,925.4772
412.1756,925.7303
414.1123,925.9556
416.0491,926.1859
418.1619,926.4111
420.0986,926.6226
422.0354,926.8373
424.1482,927.0473
426.085,927.2439
428.0217,927.4439
430.1345,927.6391
432.0713,927.8204
434.008,928.0072
436.1208,928.1888
438.0576,928.3577
440.1704,928.5383
442.1072,928.7007
444.0439,928.8648
446.1567,929.0268
448.0935,929.1782
450.0302,929.3327
452.1431,929.4835
454.0798,929.6254
456.0166,929.7701
458.1294,929.9124
460.0661,930.0463
462.0029,930.1825
464.1157,930.3157
466.0524,930.4469
468.1653,930.5766
470.102,930.6981
472.0388,930.8216
474.1516,930.9434
476.0883,931.0576
478.0251,931.1757
480.1379,931.2915
482.0746,931.4
484.0114,931.5124
486.1242,931.6227
488.061,931.7259
490.1738,931.8363
492.1105,931.9372
494.0473,932.0403
496.1601,932.1422
498.0968,932.2378
500.0,932.3345

File: BUW-FZJ_B_Gasification_q50_Temp_R5.csv
Time,T_back_1
[s],[K]
0.0,291.67
2.1128,291.67
4.0496,291.67
6.1624,291.67
8.0991,291.67
10.0359,291.67
12.1487,291.67
14.0855,291.6702
16.0222,291.671
18.135,291.6737
20.0718,291.6804
22.0085,291.6951
24.1213,291.7229
26.0581,291.7671
28.1709,291.8422
30.1077,291.9423
32.0444,292.0858
34.1572,292.2761
36.094,292.5074
38.0307,292.806
40.1435,293.1682
42.0803,293.5774
44.017,294.0739
46.1299,294.644
48.0666,295.2591
50.0034,295.9761
52.1162,296.7699
54.0529,297.6393
56.1657,298.5845
58.1025,299.5578
60.0392,300.6461
62.1521,301.8055
64.0888,302.9783
66.0256,304.2688
68.1384,305.6232
70.0751,306.9755
72.0119,308.4459
74.1247,309.972
76.0614,311.4809
78.1743,313.1791
80.111,314.781
82.0478,316.4994
84.1606,318.2605
86.0973,319.9822
88.0341,321.8189
90.1469,323.6915
92.0837,325.5141
94.0204,327.4503
96.1332,329.4167
98.07,331.3239
100.0067,333.3437
102.1195,335.3889
104.0563,337.4577
106.1691,339.5491
108.1059,341.5695
110.0426,343.7013
112.1554,345.8525
114.0922,347.9271
116.0289,350.1129
118.1417,352.3154
120.0785,354.4368
122.0152,356.6693
124.1281,358.9164
126.0648,361.0788
128.0016,363.3524
130.1144,365.6395
132.0511,367.9391
134.1639,370.2507
136.1007,372.4726
138.0374,374.8066
140.1503,377.1516
142.087,379.4046
144.0238,381.7702
146.1366,384.146
148.0733,386.428
150.0101,388.8233
152.1229,391.2283
154.0596,393.5376
156.1725,396.0668
158.1092,398.3942
160.046,400.8366
162.1588,403.2883
164.0955,405.6417
166.0323,408.1108
168.1451,410.5891
170.0818,412.9681
172.0186,415.464
174.1314,417.969
176.0682,420.3734
178.0049,422.8962
180.1177,425.428
182.0545,427.969
184.1673,430.5194
186.104,432.9674
188.0408,435.5357
190.1536,438.1131
192.0904,440.5868
194.0271,443.1819
196.1399,445.7862
198.0767,448.2861
200.0134,450.9087
202.1263,453.5409
204.063,456.0676
206.1758,458.8338
208.1126,461.3784
210.0493,464.0478
212.1621,466.7266
214.0989,469.2974
216.0356,471.994
218.1485,474.7003
220.0852,477.2975
222.022,480.0224
224.1348,482.7565
226.0715,485.3804
228.0083,488.1323
230.1211,490.8931
232.0578,493.542
234.1707,496.4402
236.1074,499.1049
238.0442,501.8988
240.157,504.7012
242.0937,507.3892
244.0305,510.2068
246.1433,513.0314
248.08,515.7394
250.0168,518.5765
252.1296,521.4188
254.0664,524.1418
256.0031,526.9928
258.1159,529.8477
260.0527,532.7063
262.1655,535.5662
264.1023,538.3012
266.039,541.1584
268.1518,544.0127
270.0886,546.7384
272.0253,549.5818
274.1381,552.418
276.0749,555.123
278.0116,557.9406
280.1245,560.7423
282.0612,563.4064
284.174,566.2958
286.1108,568.9258
288.0475,571.6543
290.1603,574.3586
292.0971,576.9217
294.0338,579.5736
296.1467,582.1949
298.0834,584.6695
300.0202,587.2215
302.133,589.7385
304.0697,592.1134
306.0065,594.5631
308.1193,596.981
310.056,599.3681
312.1689,601.7287
314.1056,603.9642
316.0424,606.2843
318.1552,608.5915
320.0919,610.7928
322.0287,613.0951
324.1415,615.4069
326.0783,617.6348
328.015,619.9907
330.1278,622.3845
332.0646,624.7197
334.0013,627.2199
336.1141,629.7918
338.0509,632.4476
340.1637,635.2042
342.1005,637.951
344.0372,640.9566
346.15,644.1245
348.0868,647.3319
350.0235,650.9024
352.1363,654.7396
354.0731,658.7064
356.0098,663.2335
358.1226,668.2616
360.0594,673.6583
362.1722,680.4466
364.109,687.868
366.0457,697.5037
368.1585,710.82
370.0953,731.7217
372.032,778.0031
374.1449,824.0983
376.0816,849.5776
378.0184,866.2435
380.1312,877.1386
382.0679,884.4264
384.0047,889.9982
386.1175,894.1972
388.0542,897.5006
390.1671,900.1775
392.1038,902.3218
394.0406,904.2395
396.1534,905.9058
398.0901,907.3234
400.0269,908.6525
402.1397,909.8488
404.0764,910.8892
406.0132,911.8853
408.126,912.7999
410.0628,913.6098
412.1756,914.43
414.1123,915.1307
416.0491,915.817
418.1619,916.4612
420.0986,917.043
422.0354,917.6183
424.1482,918.1616
426.085,918.6554
428.0217,919.1474
430.1345,919.6156
432.0713,920.0433
434.008,920.4713
436.1208,920.8814
438.0576,921.2566
440.1704,921.6503
442.1072,921.9959
444.0439,922.3457
446.1567,922.6814
448.0935,922.9915
450.0302,923.3051
452.1431,923.6071
454.0798,923.8872
456.0166,924.1699
458.1294,924.4444
460.0661,924.6981
462.0029,924.9565
464.1157,925.2066
466.0524,925.4496
468.1653,925.6868
470.102,925.9094
472.0388,926.1349
474.1516,926.3574
476.0883,926.5639
478.0251,926.7742
480.1379,926.9802
482.0746,927.1719
484.0114,927.3678
486.1242,927.5582
488.061,927.7362
490.1738,927.9269
492.1105,928.0954
494.0473,928.2694
496.1601,928.4389
498.0968,928.5968
500.0,928.7566

File: BUW-FZJ_C_Gasification_q50_MLR_R4.csv
Time,MLR_CH4,MLR_CO2,MLR_Combined
[s],[g/m2/s],[g/m2/s],[g/m2/s]
0.0,0.0,0.0,0.0
2.1128,0.0007,0.003,0.0037
4.0496,0.034,0.0314,0.0654
6.1624,0.2585,0.1044,0.3628
8.0991,0.8785,0.2222,1.1007
10.0359,1.55,0.3717,1.9217
12.1487,1.3786,0.4945,1.8731
14.0855,1.2776,0.5535,1.8311
16.0222,1.3887,0.5853,1.974
18.135,1.6045,0.6354,2.2399
20.0718,1.8869,0.7226,2.6095
22.0085,2.2474,0.8571,3.1045
24.1213,2.6639,1.035,3.6989
26.0581,3.1005,1.2407,4.3412
28.1709,3.5981,1.495,5.0931
30.1077,4.0663,1.7533,5.8196
32.0444,4.5536,2.0402,6.5937
34.1572,5.0234,2.3372,7.3606
36.094,5.4511,2.6247,8.0758
38.0307,5.8699,2.9245,8.7944
40.1435,6.2544,3.2182,9.4726
42.0803,6.5918,3.4929,10.0847
44.017,6.9124,3.7717,10.6841
46.1299,7.1982,4.0377,11.2358
48.0666,7.4439,4.2826,11.7265
50.0034,7.674,4.5282,12.2022
52.1162,7.8792,4.7639,12.6431
54.0529,8.0606,4.988,13.0486
56.1657,8.2185,5.1998,13.4183
58.1025,8.3491,5.3907,13.7398
60.0392,8.4767,5.5889,14.0657
62.1521,8.5845,5.7719,14.3564
64.0888,8.6748,5.9404,14.6152
66.0256,8.7614,6.1128,14.8742
68.1384,8.8332,6.2716,15.1048
70.0751,8.8968,6.4237,15.3205
72.0119,8.9509,6.5678,15.5186
74.1247,9.0002,6.7115,15.7117
76.0614,9.0422,6.8415,15.8836
78.1743,9.0812,6.9784,16.0595
80.111,9.1133,7.0996,16.2129
82.0478,9.1424,7.2195,16.3618
84.1606,9.1696,7.3387,16.5082
86.0973,9.1889,7.4429,16.6318
88.0341,9.2083,7.5513,16.7596
90.1469,9.2263,7.655,16.8813
92.0837,9.2388,7.7482,16.987
94.0204,9.2558,7.8476,17.1033
96.1332,9.2648,7.9371,17.2019
98.07,9.2775,8.0243,17.3018
100.0067,9.2875,8.1116,17.399
102.1195,9.2954,8.1928,17.4882
104.0563,9.3042,8.2728,17.577
106.1691,9.3129,8.3516,17.6646
108.1059,9.3177,8.4174,17.7352
110.0426,9.3255,8.4926,17.8181
112.1554,9.3332,8.5603,17.8935
114.0922,9.3392,8.6246,17.9638
116.0289,9.3459,8.6889,18.0348
118.1417,9.3517,8.7504,18.1021
120.0785,9.3593,8.8087,18.1679
122.0152,9.3657,8.8663,18.232
124.1281,9.372,8.9207,18.2927
126.0648,9.378,8.9727,18.3507
128.0016,9.385,9.0244,18.4093
130.1144,9.3913,9.0735,18.4648
132.0511,9.3975,9.1214,18.5189
134.1639,9.4049,9.1691,18.5739
136.1007,9.4109,9.2099,18.6208
138.0374,9.4194,9.2545,18.6739
140.1503,9.427,9.294,18.7211
142.087,9.4341,9.334,18.768
144.0238,9.4422,9.372,18.8142
146.1366,9.4494,9.4089,18.8583
148.0733,9.4569,9.4423,18.8992
150.0101,9.4649,9.4777,18.9426
152.1229,9.473,9.5101,18.9831
154.0596,9.4804,9.5406,19.0211
156.1725,9.4889,9.5729,19.0618
158.1092,9.4971,9.6008,19.0979
160.046,9.5066,9.6295,19.1361
162.1588,9.5154,9.6563,19.1717
164.0955,9.5236,9.6812,19.2047
166.0323,9.5325,9.7067,19.2392
168.1451,9.5415,9.7306,19.2722
170.0818,9.5505,9.7534,19.3039
172.0186,9.5604,9.7769,19.3373
174.1314,9.57,9.7996,19.3696
176.0682,9.579,9.8198,19.3989
178.0049,9.589,9.8405,19.4295
180.1177,9.599,9.861,19.46
182.0545,9.6093,9.8794,19.4887
184.1673,9.6197,9.8973,19.5171
186.104,9.6297,9.9139,19.5436
188.0408,9.6407,9.9314,19.5721
190.1536,9.6516,9.9484,19.5999
192.0904,9.6623,9.9644,19.6267
194.0271,9.6745,9.9817,19.6563
196.1399,9.6844,9.9941,19.6785
198.0767,9.6954,10.0116,19.7069
200.0134,9.7093,10.0371,19.7465
202.1263,9.7168,10.0384,19.7552
204.063,9.7309,10.0492,19.7802
206.1758,9.7432,10.0681,19.8112
208.1126,9.7564,10.0851,19.8415
210.0493,9.7664,10.0966,19.8631
212.1621,9.7792,10.1113,19.8905
214.0989,9.7914,10.1236,19.915
216.0356,9.8029,10.1358,19.9387
218.1485,9.8149,10.1493,19.9643
220.0852,9.8267,10.1629,19.9896
222.022,9.839,10.1775,20.0165
224.1348,9.8507,10.1919,20.0425
226.0715,9.8609,10.2058,20.0667
228.0083,9.8713,10.2206,20.0919
230.1211,9.8808,10.2362,20.117
232.0578,9.8892,10.2515,20.1407
234.1707,9.8975,10.2691,20.1666
236.1074,9.904,10.2865,20.1905
238.0442,9.9095,10.3058,20.2153
240.157,9.9133,10.3261,20.2394
242.0937,9.916,10.3479,20.2639
244.0305,9.9176,10.3721,20.2897
246.1433,9.919,10.3992,20.3182
248.08,9.9213,10.4275,20.3488
250.0168,9.9261,10.4605,20.3866
252.1296,9.9366,10.4966,20.4332
254.0664,9.9549,10.5356,20.4905
256.0031,9.9862,10.5822,20.5684
258.1159,10.0348,10.6379,20.6726
260.0527,10.1116,10.7127,20.8244
262.1655,10.2128,10.7988,21.0116
264.1023,10.3283,10.8861,21.2143
266.039,10.4691,10.9923,21.4615
268.1518,10.6303,11.1115,21.7418
270.0886,10.8028,11.2423,22.0452
272.0253,11.0053,11.3954,22.4007
274.1381,11.2376,11.5764,22.814
276.0749,11.495,11.7834,23.2783
278.0116,11.801,12.0387,23.8397
280.1245,12.085,12.2539,24.3389
282.0612,12.3398,12.4916,24.8314
284.174,12.6082,12.7661,25.3742
286.1108,12.8292,13.0163,25.8455
288.0475,13.0329,13.2786,26.3115
290.1603,13.2003,13.5237,26.724
292.0971,13.3218,13.7354,27.0572
294.0338,13.4146,13.9513,27.3659
296.1467,13.472,14.1489,27.6209
298.0834,13.4916,14.3146,27.8062
300.0202,13.4851,14.4884,27.9735
302.133,13.4529,14.6535,28.1064
304.0697,13.3929,14.794,28.1869
306.0065,13.312,14.9491,28.2611
308.1193,13.2024,15.0824,28.2848
310.056,13.0754,15.2288,28.3042
312.1689,12.9308,15.3759,28.3067
314.1056,12.7667,15.5006,28.2674
316.0424,12.5844,15.6531,28.2375
318.1552,12.3734,15.7807,28.1541
320.0919,12.1587,15.9244,28.0831
322.0287,11.9192,16.0824,28.0016
324.1415,11.6439,16.2048,27.8487
326.0783,11.3752,16.3609,27.7361
328.015,11.0719,16.5114,27.5833
330.1278,10.7365,16.6481,27.3846
332.0646,10.4096,16.8058,27.2155
334.0013,10.0395,16.9461,26.9856
336.1141,9.6397,17.0771,26.7168
338.0509,9.2327,17.2333,26.466
340.1637,8.7966,17.3528,26.1494
342.1005,8.3483,17.4368,25.785
344.0372,7.8776,17.5679,25.4455
346.15,7.3857,17.6656,25.0513
348.0868,6.8835,17.6874,24.5708
350.0235,6.3264,17.6317,23.9581
352.1363,5.7655,17.5697,23.3351
354.0731,5.214,17.4251,22.6391
356.0098,4.621,17.147,21.768
358.1226,3.9842,16.4694,20.4537
360.0594,3.3164,15.066,18.3825
362.1722,2.4399,10.894,13.3339
364.109,0.6878,0.7108,1.3986
366.0457,0.0,0.0,0.0
368.1585,0.0,0.0,0.0
370.0953,0.0,0.0,0.0
372.032,0.0,0.0,0.0
374.1449,0.0,0.0,0.0
376.0816,0.0,0.0,0.0
378.0184,0.0,0.0,0.0
380.1312,0.0,0.0,0.0
382.0679,0.0,0.0,0.0
384.0047,0.0,0.0,0.0
386.1175,0.0,0.0,0.0
388.0542,0.0,0.0,0.0
390.1671,0.0,0.0,0.0
392.1038,0.0,0.0,0.0
394.0406,0.0,0.0,0.0
396.1534,0.0,0.0,0.0
398.0901,0.0,0.0,0.0
400.0269,0.0,0.0,0.0
402.1397,0.0,0.0,0.0
404.0764,0.0,0.0,0.0
406.0132,0.0,0.0,0.0
408.126,0.0,0.0,0.0
410.0628,0.0,0.0,0.0
412.1756,0.0,0.0,0.0
414.1123,0.0,0.0,0.0
416.0491,0.0,0.0,0.0
418.1619,0.0,0.0,0.0
420.0986,0.0,0.0,0.0
422.0354,0.0,0.0,0.0
424.1482,0.0,0.0,0.0
426.085,0.0,0.0,0.0
428.0217,0.0,0.0,0.0
430.1345,0.0,0.0,0.0
432.0713,0.0,0.0,0.0
434.008,0.0,0.0,0.0
436.1208,0.0,0.0,0.0
438.0576,0.0,0.0,0.0
440.1704,0.0,0.0,0.0
442.1072,0.0,0.0,0.0
444.0439,0.0,0.0,0.0
446.1567,0.0,0.0,0.0
448.0935,0.0,0.0,0.0
450.0302,0.0,0.0,0.0
452.1431,0.0,0.0,0.0
454.0798,0.0,0.0,0.0
456.0166,0.0,0.0,0.0
458.1294,0.0,0.0,0.0
460.0661,0.0,0.0,0.0
462.0029,0.0,0.0,0.0
464.1157,0.0,0.0,0.0
466.0524,0.0,0.0,0.0
468.1653,0.0,0.0,0.0
470.102,0.0,0.0,0.0
472.0388,0.0,0.0,0.0
474.1516,0.0,0.0,0.0
476.0883,0.0,0.0,0.0
478.0251,0.0,0.0,0.0
480.1379,0.0,0.0,0.0
482.0746,0.0,0.0,0.0
484.0114,0.0,0.0,0.0
486.1242,0.0,0.0,0.0
488.061,0.0,0.0,0.0
490.1738,0.0,0.0,0.0
492.1105,0.0,0.0,0.0
494.0473,0.0,0.0,0.0
496.1601,0.0,0.0,0.0
498.0968,0.0,0.0,0.0
500.0,0.0,0.0,0.0