Folder: matl-db/PMMA/Validation_Results/EDF

File: EDF_Gasification_q25_Mass.csv
Time,Mass
[s],[g]
0.00,26.8
4.11,26.8
8.20,26.8
12.36,26.8
16.48,26.8
20.59,26.8
24.73,26.8
28.87,26.8
33.08,26.8
37.16,26.8
41.44,26.8
45.56,26.8
49.85,26.8
53.95,26.8
57.95,26.8
61.95,26.8
66.15,26.8
70.55,26.8
74.95,26.7995
79.35,26.7995
83.75,26.7991
88.15,26.7982
92.55,26.7968
96.95,26.7949
101.35,26.7921
105.75,26.788
110.15,26.782
114.55,26.7737
118.95,26.7626
123.35,26.7478
127.75,26.7293
132.15,26.7062
136.55,26.678
140.95,26.6452
145.35,26.6069
149.75,26.5639
154.15,26.5154
158.55,26.4618
162.95,26.4035
167.35,26.3407
171.75,26.2737
176.15,26.2021
180.55,26.1263
184.95,26.0468
189.35,25.9632
193.75,25.8763
198.15,25.7853
202.55,25.691
206.95,25.5935
211.35,25.4923
215.75,25.3879
220.15,25.2807
224.55,25.1698
228.95,25.0562
233.35,24.9392
237.75,24.8191
242.15,24.6962
246.55,24.5705
250.95,24.4416
255.35,24.3099
259.35,24.1875
263.35,24.0627
267.35,23.9356
271.35,23.8063
275.35,23.6746
279.35,23.5406
283.35,23.4043
287.35,23.2656
291.35,23.1247
295.35,22.9815
299.35,22.8364
303.35,22.689
307.35,22.5397
311.35,22.3882
315.35,22.2352
319.35,22.08
323.35,21.9229
327.35,21.7644
331.35,21.604
335.35,21.4423
339.35,21.2792
343.35,21.1147
347.35,20.9488
351.35,20.7816
355.35,20.6134
359.35,20.4442
363.35,20.2747
367.35,20.1037
371.35,19.9323
375.35,19.7599
379.35,19.5871
383.35,19.4138
387.35,19.2401
391.35,19.0659
395.35,18.8912
399.35,18.7161
403.35,18.541
407.35,18.3654
411.35,18.1898
415.35,18.0138
419.35,17.8377
423.35,17.6617
427.35,17.4852
431.35,17.3086
435.35,17.1321
439.35,16.9552
443.35,16.7786
447.35,16.6017
451.35,16.4247
455.35,16.2477
459.35,16.0708
463.35,15.8938
467.35,15.7168
471.35,15.5394
475.35,15.3624
479.35,15.185
483.35,15.008
487.35,14.8306
491.35,14.6531
495.35,14.4757
499.35,14.2987
503.35,14.1213
507.35,13.9434
511.35,13.766
515.35,13.5885
519.35,13.4111
523.35,13.2332
527.35,13.0558
531.35,12.8783
535.35,12.7004
539.35,12.5225
543.35,12.3451
547.35,12.1672
551.35,11.9893
555.35,11.8114
559.35,11.6335
563.35,11.4561
567.35,11.2782
571.35,11.0998
575.35,10.9219
579.35,10.744
583.35,10.5661
587.35,10.3882
591.35,10.2103
595.35,10.0324
599.35,9.85454
603.35,9.67665
607.35,9.49875
611.35,9.32086
615.35,9.14296
619.35,8.96552
623.35,8.78763
627.35,8.61019
631.35,8.43276
635.35,8.25532
639.35,8.07789
643.35,7.90092
647.35,7.72394
651.35,7.54743
655.35,7.37092
659.35,7.19441
663.35,7.01883
667.35,6.84278
671.35,6.66766
675.35,6.49299
679.35,6.31833
683.35,6.14459
687.35,5.97086
691.35,5.7985
695.35,5.62615
699.35,5.45472
703.35,5.28422
707.35,5.1151
711.35,4.94645
715.35,4.77918
719.35,4.61283
723.35,4.44788
727.35,4.28477
731.35,4.12304
735.35,3.96317
739.35,3.80514
743.35,3.64896
747.35,3.49509
751.35,3.34353
755.35,3.19474
759.35,3.04873
763.35,2.90503
767.35,2.76502
771.35,2.62779
775.35,2.49425
779.35,2.36394
783.35,2.2378
787.35,2.11489
791.35,1.9966
795.35,1.88201
799.35,1.77157
803.35,1.6653
807.35,1.56364
811.35,1.46661
815.35,1.37327
819.35,1.28501
823.35,1.20046
827.35,1.12052
831.35,1.0452
835.35,0.973579
839.35,0.906117
843.35,0.842814
847.35,0.783207
851.35,0.727297
855.35,0.675083
859.35,0.626103
863.35,0.580359
867.35,0.537848
871.35,0.49811
875.35,0.461145
879.35,0.426952
883.35,0.395069
887.35,0.365959
891.35,0.338697
895.35,0.313283
899.35,0.289717
903.35,0.268
907.35,0.248131
911.35,0.229648
915.35,0.212552
919.35,0.196841
923.35,0.182055
927.35,0.168655
931.35,0.156641
935.35,0.14509
939.35,0.134462
943.35,0.124759
947.35,0.115517
951.35,0.1072
955.35,0.0998069
959.35,0.0924138
963.35,0.0859448
967.35,0.0799379
971.35,0.0743931
975.35,0.0693103
979.35,0.0642276
983.35,0.060069
987.35,0.0559103
991.35,0.0522138
995.35,0.0485172
999.35,0.0452828

File: EDF_Gasification_q25_MLR.csv
Time,MLR
[s],[g/s/m2]
0.00,0.00
4.11,0.00
8.20,0.00
12.36,0.00
16.48,0.00
20.59,0.00
24.73,0.00
28.87,0.00
33.08,0.00
37.16,0.00
41.44,0.00
45.56,0.00
49.85,0.00
53.95,0.00
57.95,0.00
61.95,0.00
66.15,0.00
70.55,0.01
74.95,0.01
79.35,0.02
83.75,0.04
88.15,0.06
92.55,0.09
96.95,0.14
101.35,0.21
105.75,0.30
110.15,0.42
114.55,0.57
118.95,0.76
123.35,0.98
127.75,1.23
132.15,1.51
136.55,1.80
140.95,2.10
145.35,2.41
149.75,2.71
154.15,3.01
158.55,3.30
162.95,3.58
167.35,3.84
171.75,4.10
176.15,4.35
180.55,4.59
184.95,4.82
189.35,5.04
193.75,5.25
198.15,5.46
202.55,5.67
206.95,5.87
211.35,6.06
215.75,6.25
220.15,6.44
224.55,6.63
228.95,6.81
233.35,6.99
237.75,7.17
242.15,7.35
246.55,7.52
250.95,7.69
255.35,7.87
259.35,8.02
263.35,8.18
267.35,8.33
271.35,8.48
275.35,8.63
279.35,8.78
283.35,8.93
287.35,9.07
291.35,9.22
295.35,9.36
299.35,9.50
303.35,9.63
307.35,9.76
311.35,9.89
315.35,10.01
319.35,10.13
323.35,10.25
327.35,10.35
331.35,10.46
335.35,10.55
339.35,10.64
343.35,10.73
347.35,10.81
351.35,10.88
355.35,10.95
359.35,11.01
363.35,11.06
367.35,11.11
371.35,11.16
375.35,11.20
379.35,11.24
383.35,11.27
387.35,11.30
391.35,11.33
395.35,11.35
399.35,11.37
403.35,11.39
407.35,11.40
411.35,11.42
415.35,11.43
419.35,11.44
423.35,11.45
427.35,11.46
431.35,11.46
435.35,11.47
439.35,11.47
443.35,11.48
447.35,11.48
451.35,11.49
455.35,11.49
459.35,11.49
463.35,11.50
467.35,11.50
471.35,11.50
475.35,11.50
479.35,11.51
483.35,11.51
487.35,11.51
491.35,11.51
495.35,11.52
499.35,11.52
503.35,11.52
507.35,11.52
511.35,11.53
515.35,11.53
519.35,11.53
523.35,11.53
527.35,11.53
531.35,11.54
535.35,11.54
539.35,11.54
543.35,11.54
547.35,11.54
551.35,11.54
555.35,11.55
559.35,11.55
563.35,11.55
567.35,11.55
571.35,11.55
575.35,11.55
579.35,11.55
583.35,11.55
587.35,11.55
591.35,11.55
595.35,11.55
599.35,11.55
603.35,11.55
607.35,11.55
611.35,11.54
615.35,11.54
619.35,11.54
623.35,11.53
627.35,11.53
631.35,11.52
635.35,11.51
639.35,11.50
643.35,11.49
647.35,11.48
651.35,11.47
655.35,11.45
659.35,11.43
663.35,11.41
667.35,11.39
671.35,11.37
675.35,11.34
679.35,11.31
683.35,11.27
687.35,11.24
691.35,11.19
695.35,11.15
699.35,11.09
703.35,11.04
707.35,10.97
711.35,10.90
715.35,10.83
719.35,10.74
723.35,10.65
727.35,10.55
731.35,10.44
735.35,10.32
739.35,10.20
743.35,10.06
747.35,9.91
751.35,9.75
755.35,9.58
759.35,9.40
763.35,9.21
767.35,9.00
771.35,8.79
775.35,8.56
779.35,8.33
783.35,8.08
787.35,7.83
791.35,7.57
795.35,7.30
799.35,7.02
803.35,6.74
807.35,6.46
811.35,6.18
815.35,5.89
819.35,5.61
823.35,5.32
827.35,5.05
831.35,4.77
835.35,4.50
839.35,4.24
843.35,3.99
847.35,3.74
851.35,3.51
855.35,3.28
859.35,3.07
863.35,2.86
867.35,2.66
871.35,2.48
875.35,2.30
879.35,2.14
883.35,1.98
887.35,1.84
891.35,1.70
895.35,1.58
899.35,1.46
903.35,1.35
907.35,1.25
911.35,1.15
915.35,1.06
919.35,0.98
923.35,0.91
927.35,0.84
931.35,0.77
935.35,0.71
939.35,0.66
943.35,0.61
947.35,0.56
951.35,0.52
955.35,0.48
959.35,0.44
963.35,0.41
967.35,0.38
971.35,0.35
975.35,0.32
979.35,0.30
983.35,0.28
987.35,0.26
991.35,0.24
995.35,0.22
999.35,0.20

File: EDF_Gasification_q25_Temp.csv
Time,T
[s],[K]
0.00,300.00
4.11,300.00
8.20,300.06
12.36,300.47
16.48,301.62
20.59,303.68
24.73,306.63
28.87,310.36
33.08,314.79
37.16,319.56
41.44,324.95
45.56,330.40
49.85,336.31
53.95,342.07
57.95,347.78
61.95,353.52
66.15,359.58
70.55,365.91
74.95,372.22
79.35,378.49
83.75,384.69
88.15,390.83
92.55,396.90
96.95,402.88
101.35,408.78
105.75,414.60
110.15,420.32
114.55,425.95
118.95,431.50
123.35,436.95
127.75,442.30
132.15,447.56
136.55,452.73
140.95,457.79
145.35,462.76
149.75,467.63
154.15,472.39
158.55,477.06
162.95,481.62
167.35,486.07
171.75,490.42
176.15,494.66
180.55,498.79
184.95,502.82
189.35,506.75
193.75,510.57
198.15,514.29
202.55,517.91
206.95,521.43
211.35,524.86
215.75,528.18
220.15,531.42
224.55,534.56
228.95,537.61
233.35,540.57
237.75,543.44
242.15,546.23
246.55,548.92
250.95,551.53
255.35,554.06
259.35,556.28
263.35,558.42
267.35,560.50
271.35,562.50
275.35,564.43
279.35,566.29
283.35,568.08
287.35,569.80
291.35,571.44
295.35,573.01
299.35,574.51
303.35,575.93
307.35,577.29
311.35,578.58
315.35,579.79
319.35,580.95
323.35,582.03
327.35,583.06
331.35,584.02
335.35,584.93
339.35,585.78
343.35,586.58
347.35,587.33
351.35,588.04
355.35,588.71
359.35,589.34
363.35,589.93
367.35,590.49
371.35,591.02
375.35,591.53
379.35,592.01
383.35,592.47
387.35,592.92
391.35,593.35
395.35,593.76
399.35,594.16
403.35,594.56
407.35,594.94
411.35,595.32
415.35,595.69
419.35,596.06
423.35,596.43
427.35,596.79
431.35,597.16
435.35,597.52
439.35,597.88
443.35,598.24
447.35,598.61
451.35,598.97
455.35,599.34
459.35,599.71
463.35,600.09
467.35,600.47
471.35,600.85
475.35,601.23
479.35,601.62
483.35,602.02
487.35,602.42
491.35,602.82
495.35,603.23
499.35,603.64
503.35,604.06
507.35,604.49
511.35,604.92
515.35,605.35
519.35,605.80
523.35,606.24
527.35,606.70
531.35,607.16
535.35,607.63
539.35,608.11
543.35,608.59
547.35,609.08
551.35,609.58
555.35,610.09
559.35,610.61
563.35,611.13
567.35,611.66
571.35,612.21
575.35,612.76
579.35,613.32
583.35,613.89
587.35,614.47
591.35,615.06
595.35,615.67
599.35,616.28
603.35,616.91
607.35,617.54
611.35,618.19
615.35,618.86
619.35,619.53
623.35,620.22
627.35,620.93
631.35,621.64
635.35,622.38
639.35,623.13
643.35,623.89
647.35,624.67
651.35,625.47
655.35,626.28
659.35,627.11
663.35,627.96
667.35,628.82
671.35,629.71
675.35,630.62
679.35,631.54
683.35,632.49
687.35,633.45
691.35,634.44
695.35,635.44
699.35,636.47
703.35,637.52
707.35,638.60
711.35,639.69
715.35,640.81
719.35,641.95
723.35,643.11
727.35,644.29
731.35,645.50
735.35,646.72
739.35,647.97
743.35,649.23
747.35,650.52
751.35,651.82
755.35,653.14
759.35,654.47
763.35,655.82
767.35,657.18
771.35,658.55
775.35,659.93
779.35,661.31
783.35,662.71
787.35,664.10
791.35,665.50
795.35,666.89
799.35,668.28
803.35,669.67
807.35,671.05
811.35,672.42
815.35,673.78
819.35,675.13
823.35,676.48
827.35,677.80
831.35,679.12
835.35,680.42
839.35,681.70
843.35,682.98
847.35,684.24
851.35,685.48
855.35,686.71
859.35,687.93
863.35,689.13
867.35,690.32
871.35,691.50
875.35,692.66
879.35,693.82
883.35,694.96
887.35,696.09
891.35,697.21
895.35,698.32
899.35,699.42
903.35,700.50
907.35,701.58
911.35,702.65
915.35,703.72
919.35,704.77
923.35,705.81
927.35,706.85
931.35,707.88
935.35,708.90
939.35,709.91
943.35,710.91
947.35,711.91
951.35,712.90
955.35,713.88
959.35,714.85
963.35,715.82
967.35,716.78
971.35,717.73
975.35,718.68
979.35,719.61
983.35,720.54
987.35,721.47
991.35,722.38
995.35,723.29
999.35,724.20

File: EDF_Gasification_q50_Mass.csv
Time,Mass
[s],[g]
0.00,26.80
2.04,26.80
4.11,26.80
6.15,26.80
8.20,26.80
10.28,26.80
12.36,26.80
14.39,26.80
16.48,26.80
18.50,26.80
20.59,26.80
22.66,26.80
24.73,26.80
26.85,26.80
28.87,26.80
30.95,26.79
33.08,26.78
35.09,26.77
37.16,26.75
39.28,26.72
41.44,26.68
43.48,26.63
45.56,26.57
47.68,26.51
49.85,26.44
51.95,26.37
53.95,26.29
55.95,26.22
57.95,26.13
59.95,26.05
61.95,25.96
63.95,25.87
66.15,25.77
68.35,25.67
70.55,25.56
72.75,25.45
74.95,25.34
77.15,25.23
79.35,25.11
81.55,24.99
83.75,24.87
85.95,24.75
88.15,24.63
90.35,24.50
92.55,24.38
94.75,24.25
96.95,24.11
99.15,23.98
101.35,23.85
103.55,23.71
105.75,23.57
107.95,23.43
110.15,23.29
112.35,23.15
114.55,23.00
116.75,22.86
118.95,22.71
121.15,22.56
123.35,22.41
125.55,22.26
127.75,22.10
129.95,21.94
132.15,21.79
134.35,21.63
136.55,21.47
138.75,21.31
140.95,21.14
143.15,20.98
145.35,20.81
147.55,20.64
149.75,20.47
151.95,20.30
154.15,20.12
156.35,19.95
158.55,19.77
160.75,19.59
162.95,19.41
165.15,19.23
167.35,19.05
169.55,18.86
171.75,18.67
173.95,18.48
176.15,18.29
178.35,18.10
180.55,17.90
182.75,17.71
184.95,17.51
187.15,17.31
189.35,17.10
191.55,16.90
193.75,16.69
195.95,16.49
198.15,16.27
200.35,16.06
202.55,15.85
204.75,15.63
206.95,15.41
209.15,15.19
211.35,14.97
213.55,14.75
215.75,14.52
217.95,14.30
220.15,14.07
222.35,13.84
224.55,13.61
226.75,13.38
228.95,13.15
231.15,12.91
233.35,12.68
235.55,12.45
237.75,12.21
239.95,11.97
242.15,11.74
244.35,11.50
246.55,11.27
248.75,11.03
250.95,10.79
253.15,10.55
255.35,10.31
257.35,10.10
259.35,9.88
261.35,9.66
263.35,9.45
265.35,9.23
267.35,9.01
269.35,8.79
271.35,8.57
273.35,8.36
275.35,8.14
277.35,7.92
279.35,7.70
281.35,7.48
283.35,7.27
285.35,7.05
287.35,6.83
289.35,6.61
291.35,6.39
293.35,6.18
295.35,5.96
297.35,5.74
299.35,5.53
301.35,5.31
303.35,5.10
305.35,4.89
307.35,4.67
309.35,4.46
311.35,4.26
313.35,4.05
315.35,3.85
317.35,3.64
319.35,3.45
321.35,3.25
323.35,3.06
325.35,2.87
327.35,2.69
329.35,2.51
331.35,2.34
333.35,2.18
335.35,2.02
337.35,1.86
339.35,1.72
341.35,1.58
343.35,1.45
345.35,1.32
347.35,1.21
349.35,1.10
351.35,1.00
353.35,0.90
355.35,0.82
357.35,0.74
359.35,0.66
361.35,0.60
363.35,0.53
365.35,0.48
367.35,0.43
369.35,0.38
371.35,0.34
373.35,0.30
375.35,0.27
377.35,0.24
379.35,0.22
381.35,0.19
383.35,0.17
385.35,0.15
387.35,0.14
389.35,0.12
391.35,0.11
393.35,0.10
395.35,0.09
397.35,0.08
399.35,0.07
401.35,0.06
403.35,0.05
405.35,0.05
407.35,0.04
409.35,0.04
411.35,0.03
413.35,0.03
415.35,0.03
417.35,0.02
419.35,0.02
421.35,0.02
423.35,0.02
425.35,0.02
427.35,0.01

File: EDF_Gasification_q50_MassLossRate.csv
Time,MLR
[s],[g/s/m2]
0.00,0.00
2.04,0.00
4.11,0.00
6.15,0.00
8.20,0.00
10.28,0.00
12.36,0.00
14.39,0.00
16.48,0.00
18.50,0.00
20.59,0.01
22.66,0.03
24.73,0.09
26.85,0.20
28.87,0.41
30.95,0.80
33.08,1.42
35.09,2.23
37.16,3.25
39.28,4.36
41.44,5.48
43.48,6.45
45.56,7.32
47.68,8.10
49.85,8.79
51.95,9.38
53.95,9.87
55.95,10.32
57.95,10.73
59.95,11.11
61.95,11.46
63.95,11.78
66.15,12.12
68.35,12.44
70.55,12.74
72.75,13.02
74.95,13.29
77.15,13.55
79.35,13.81
81.55,14.05
83.75,14.29
85.95,14.52
88.15,14.74
90.35,14.96
92.55,15.18
94.75,15.39
96.95,15.60
99.15,15.81
101.35,16.01
103.55,16.21
105.75,16.41
107.95,16.61
110.15,16.80
112.35,16.99
114.55,17.19
116.75,17.38
118.95,17.57
121.15,17.76
123.35,17.95
125.55,18.14
127.75,18.32
129.95,18.51
132.15,18.70
134.35,18.89
136.55,19.08
138.75,19.26
140.95,19.45
143.15,19.64
145.35,19.83
147.55,20.03
149.75,20.22
151.95,20.41
154.15,20.61
156.35,20.80
158.55,21.00
160.75,21.20
162.95,21.41
165.15,21.61
167.35,21.82
169.55,22.03
171.75,22.24
173.95,22.46
176.15,22.68
178.35,22.90
180.55,23.12
182.75,23.35
184.95,23.58
187.15,23.81
189.35,24.05
191.55,24.28
193.75,24.52
195.95,24.75
198.15,24.99
200.35,25.22
202.55,25.44
204.75,25.66
206.95,25.88
209.15,26.08
211.35,26.28
213.55,26.46
215.75,26.64
217.95,26.80
220.15,26.96
222.35,27.10
224.55,27.23
226.75,27.34
228.95,27.45
231.15,27.54
233.35,27.63
235.55,27.71
237.75,27.77
239.95,27.84
242.15,27.89
244.35,27.94
246.55,27.99
248.75,28.03
250.95,28.07
253.15,28.11
255.35,28.14
257.35,28.17
259.35,28.19
261.35,28.22
263.35,28.24
265.35,28.26
267.35,28.28
269.35,28.30
271.35,28.32
273.35,28.33
275.35,28.34
277.35,28.35
279.35,28.35
281.35,28.35
283.35,28.34
285.35,28.33
287.35,28.31
289.35,28.28
291.35,28.24
293.35,28.19
295.35,28.12
297.35,28.05
299.35,27.95
301.35,27.84
303.35,27.70
305.35,27.55
307.35,27.36
309.35,27.15
311.35,26.90
313.35,26.61
315.35,26.29
317.35,25.92
319.35,25.51
321.35,25.05
323.35,24.53
325.35,23.96
327.35,23.33
329.35,22.65
331.35,21.92
333.35,21.13
335.35,20.29
337.35,19.41
339.35,18.49
341.35,17.55
343.35,16.58
345.35,15.60
347.35,14.61
349.35,13.63
351.35,12.67
353.35,11.72
355.35,10.81
357.35,9.93
359.35,9.09
361.35,8.29
363.35,7.54
365.35,6.84
367.35,6.18
369.35,5.58
371.35,5.02
373.35,4.51
375.35,4.04
377.35,3.62
379.35,3.24
381.35,2.89
383.35,2.58
385.35,2.30
387.35,2.05
389.35,1.82
391.35,1.62
393.35,1.44
395.35,1.28
397.35,1.14
399.35,1.01
401.35,0.90
403.35,0.80
405.35,0.71
407.35,0.63
409.35,0.56
411.35,0.50
413.35,0.44
415.35,0.40
417.35,0.35
419.35,0.31
421.35,0.28
423.35,0.25
425.35,0.22
427.35,0.20

File: EDF_Gasification_q50_Temp.csv
Time,T
[s],[K]
0.00,300.00
2.04,300.00
4.11,300.00
6.15,300.02
8.20,300.11
10.28,300.36
12.36,300.88
14.39,301.71
16.48,302.96
18.50,304.54
20.59,306.56
22.66,308.94
24.73,311.63
26.85,314.70
28.87,317.89
30.95,321.40
33.08,325.20
35.09,328.97
37.16,332.97
39.28,337.19
41.44,341.63
43.48,345.86
45.56,350.26
47.68,354.81
49.85,359.49
51.95,364.04
53.95,368.39
55.95,372.73
57.95,377.07
59.95,381.39
61.95,385.68
63.95,389.95
66.15,394.61
68.35,399.22
70.55,403.79
72.75,408.30
74.95,412.76
77.15,417.16
79.35,421.51
81.55,425.80
83.75,430.03
85.95,434.21
88.15,438.33
90.35,442.39
92.55,446.40
94.75,450.35
96.95,454.25
99.15,458.10
101.35,461.89
103.55,465.64
105.75,469.33
107.95,472.98
110.15,476.58
112.35,480.13
114.55,483.64
116.75,487.11
118.95,490.53
121.15,493.91
123.35,497.24
125.55,500.54
127.75,503.80
129.95,507.01
132.15,510.19
134.35,513.34
136.55,516.44
138.75,519.51
140.95,522.54
143.15,525.53
145.35,528.49
147.55,531.41
149.75,534.30
151.95,537.15
154.15,539.96
156.35,542.74
158.55,545.48
160.75,548.18
162.95,550.85
165.15,553.47
167.35,556.06
169.55,558.60
171.75,561.10
173.95,563.56
176.15,565.96
178.35,568.32
180.55,570.63
182.75,572.88
184.95,575.08
187.15,577.22
189.35,579.29
191.55,581.31
193.75,583.25
195.95,585.12
198.15,586.93
200.35,588.65
202.55,590.31
204.75,591.89
206.95,593.40
209.15,594.83
211.35,596.20
213.55,597.49
215.75,598.72
217.95,599.89
220.15,601.00
222.35,602.07
224.55,603.08
226.75,604.06
228.95,605.00
231.15,605.92
233.35,606.81
235.55,607.68
237.75,608.55
239.95,609.40
242.15,610.25
244.35,611.10
246.55,611.96
248.75,612.82
250.95,613.69
253.15,614.58
255.35,615.48
257.35,616.32
259.35,617.17
261.35,618.04
263.35,618.93
265.35,619.84
267.35,620.78
269.35,621.73
271.35,622.71
273.35,623.71
275.35,624.74
277.35,625.79
279.35,626.87
281.35,627.99
283.35,629.13
285.35,630.30
287.35,631.51
289.35,632.76
291.35,634.04
293.35,635.36
295.35,636.71
297.35,638.11
299.35,639.56
301.35,641.04
303.35,642.58
305.35,644.16
307.35,645.79
309.35,647.47
311.35,649.21
313.35,651.00
315.35,652.85
317.35,654.75
319.35,656.71
321.35,658.73
323.35,660.80
325.35,662.93
327.35,665.10
329.35,667.33
331.35,669.60
333.35,671.91
335.35,674.25
337.35,676.63
339.35,679.02
341.35,681.43
343.35,683.84
345.35,686.26
347.35,688.66
349.35,691.05
351.35,693.42
353.35,695.76
355.35,698.07
357.35,700.34
359.35,702.58
361.35,704.78
363.35,706.93
365.35,709.04
367.35,711.11
369.35,713.14
371.35,715.14
373.35,717.11
375.35,719.05
377.35,720.96
379.35,722.85
381.35,724.72
383.35,726.57
385.35,728.41
387.35,730.23
389.35,732.04
391.35,733.83
393.35,735.62
395.35,737.40
397.35,739.17
399.35,740.93
401.35,742.69
403.35,744.44
405.35,746.18
407.35,747.92
409.35,749.66
411.35,751.39
413.35,753.11
415.35,754.84
417.35,756.55
419.35,758.27
421.35,759.97
423.35,761.68
425.35,763.38
427.35,765.07