Folder: matl-db/PMMA/Validation_Results/NIST-StMU -FSRI

File: NIST-StMU-FSRI_Gassification_q25_Temp_R1.csv
Time,T_back
[s],[K]
0.0,294.5
3.2,294.5
6.4,294.5
9.6,294.5
12.8,294.5
16.0,294.5
19.2,294.5
22.4,294.6
25.6,294.7
28.8,294.9
32.0,295.1
35.2,295.5
38.4,296.0
41.6,296.6
44.8,297.4
48.0,298.3
51.2,299.3
54.4,300.4
57.6,301.7
60.8,303.1
64.0,304.5
67.2,306.1
70.4,307.8
73.6,309.6
76.8,311.5
80.0,313.4
83.2,315.5
86.4,317.6
89.6,319.7
92.8,321.9
96.0,324.2
99.2,326.5
102.4,328.8
105.6,331.2
108.8,333.6
112.0,336.1
115.2,338.5
118.4,341.0
121.6,343.5
124.8,346.0
128.0,348.5
131.2,351.1
134.4,353.6
137.6,356.1
140.8,358.7
144.0,361.2
147.2,363.8
150.4,366.3
153.6,368.9
156.8,371.4
160.0,373.9
163.2,376.5
166.4,379.0
169.6,381.5
172.8,384.0
176.0,386.5
179.2,389.0
182.4,391.4
185.6,393.9
188.8,396.3
192.0,398.7
195.2,401.1
198.4,403.5
201.6,405.9
204.8,408.2
208.0,410.5
211.2,412.8
214.4,415.1
217.6,417.4
220.8,419.6
224.0,421.8
227.2,424.0
230.4,426.1
233.6,428.3
236.8,430.4
240.0,432.5
243.2,434.5
246.4,436.5
249.6,438.5
252.8,440.5
256.0,442.5
259.2,444.4
262.4,446.3
265.6,448.1
268.8,450.0
272.0,451.8
275.2,453.6
278.4,455.4
281.6,457.1
284.8,458.9
288.0,460.6
291.2,462.2
294.4,463.9
297.6,465.6
300.8,467.2
304.0,468.8
307.2,470.4
310.4,472.0
313.6,473.5
316.8,475.1
320.0,476.7
323.2,478.2
326.4,479.7
329.6,481.2
332.8,482.8
336.0,484.3
339.2,485.8
342.4,487.3
345.6,488.8
348.8,490.3
352.0,491.8
355.2,493.3
358.4,494.8
361.6,496.3
364.8,497.8
368.0,499.3
371.2,500.9
374.4,502.4
377.6,503.9
380.8,505.4
384.0,506.9
387.2,508.4
390.4,509.9
393.6,511.5
396.8,513.0
400.0,514.5
403.2,516.0
406.4,517.5
409.6,519.0
412.8,520.5
416.0,521.9
419.2,523.4
422.4,524.8
425.6,526.3
428.8,527.7
432.0,529.1
435.2,530.5
438.4,531.9
441.6,533.2
444.8,534.5
448.0,535.8
451.2,537.1
454.4,538.4
457.6,539.6
460.8,540.8
464.0,542.0
467.2,543.2
470.4,544.3
473.6,545.4
476.8,546.5
480.0,547.6
483.2,548.6
486.4,549.6
489.6,550.6
492.8,551.6
496.0,552.6
499.2,553.5
502.4,554.4
505.6,555.3
508.8,556.2
512.0,557.1
515.2,557.9
518.4,558.7
521.6,559.5
524.8,560.3
528.0,561.1
531.2,561.8
534.4,562.6
537.6,563.3
540.8,564.0
544.0,564.7
547.2,565.3
550.4,566.0
553.6,566.7
556.8,567.3
560.0,567.9
563.2,568.5
566.4,569.1
569.6,569.7
572.8,570.3
576.0,570.8
579.2,571.4
582.4,571.9
585.6,572.4
588.8,572.9
592.0,573.4
595.2,573.9
598.4,574.4
601.6,574.9
604.8,575.4
608.0,575.9
611.2,576.3
614.4,576.8
617.6,577.2
620.8,577.7
624.0,578.1
627.2,578.5
630.4,579.0
633.6,579.4
636.8,579.8
640.0,580.2
643.2,580.6
646.4,581.0
649.6,581.4
652.8,581.8
656.0,582.2
659.2,582.6
662.4,583.0
665.6,583.3
668.8,583.7
672.0,584.1
675.2,584.5
678.4,584.8
681.6,585.2
684.8,585.6
688.0,586.0
691.2,586.3
694.4,586.7
697.6,587.0
700.8,587.4
704.0,587.8
707.2,588.1
710.4,588.5
713.6,588.9
716.8,589.2
720.0,589.6
723.2,589.9
726.4,590.3
729.6,590.7
732.8,591.0
736.0,591.4
739.2,591.7
742.4,592.1
745.6,592.5
748.8,592.8
752.0,593.2
755.2,593.5
758.4,593.9
761.6,594.3
764.8,594.6
768.0,595.0
771.2,595.4
774.4,595.8
777.6,596.1
780.8,596.5
784.0,596.9
787.2,597.2
790.4,597.6
793.6,598.0
796.8,598.4
800.0,598.8

File: NIST-StMU-FSRI_Gassification_q25_Temp_R3.csv
Time,T_back
[s],[K]
0.0,294.7
3.2,294.6
6.4,294.7
9.6,294.7
12.8,294.7
16.0,294.7
19.2,294.7
22.4,294.8
25.6,295.0
28.8,295.3
32.0,295.7
35.2,296.3
38.4,297.0
41.6,297.8
44.8,298.9
48.0,300.0
51.2,301.3
54.4,302.8
57.6,304.4
60.8,306.1
64.0,308.0
67.2,309.9
70.4,311.9
73.6,314.1
76.8,316.3
80.0,318.6
83.2,321.0
86.4,323.4
89.6,325.9
92.8,328.4
96.0,331.0
99.2,333.6
102.4,336.3
105.6,338.9
108.8,341.6
112.0,344.3
115.2,347.1
118.4,349.8
121.6,352.6
124.8,355.3
128.0,358.1
131.2,360.8
134.4,363.6
137.6,366.3
140.8,369.1
144.0,371.8
147.2,374.6
150.4,377.3
153.6,380.0
156.8,382.7
160.0,385.4
163.2,388.1
166.4,390.8
169.6,393.4
172.8,396.1
176.0,398.7
179.2,401.3
182.4,403.9
185.6,406.4
188.8,408.9
192.0,411.4
195.2,413.9
198.4,416.4
201.6,418.8
204.8,421.2
208.0,423.6
211.2,426.0
214.4,428.3
217.6,430.6
220.8,432.8
224.0,435.1
227.2,437.3
230.4,439.4
233.6,441.6
236.8,443.7
240.0,445.8
243.2,447.8
246.4,449.9
249.6,451.9
252.8,453.8
256.0,455.8
259.2,457.7
262.4,459.6
265.6,461.4
268.8,463.3
272.0,465.1
275.2,466.9
278.4,468.6
281.6,470.4
284.8,472.1
288.0,473.8
291.2,475.5
294.4,477.2
297.6,478.9
300.8,480.6
304.0,482.2
307.2,483.9
310.4,485.5
313.6,487.2
316.8,488.8
320.0,490.4
323.2,492.0
326.4,493.7
329.6,495.3
332.8,496.9
336.0,498.5
339.2,500.2
342.4,501.8
345.6,503.4
348.8,505.1
352.0,506.7
355.2,508.3
358.4,509.9
361.6,511.6
364.8,513.2
368.0,514.8
371.2,516.5
374.4,518.1
377.6,519.7
380.8,521.3
384.0,522.9
387.2,524.4
390.4,526.0
393.6,527.5
396.8,529.1
400.0,530.6
403.2,532.1
406.4,533.5
409.6,535.0
412.8,536.4
416.0,537.8
419.2,539.1
422.4,540.5
425.6,541.8
428.8,543.1
432.0,544.3
435.2,545.5
438.4,546.7
441.6,547.9
444.8,549.0
448.0,550.2
451.2,551.3
454.4,552.3
457.6,553.4
460.8,554.4
464.0,555.4
467.2,556.3
470.4,557.3
473.6,558.2
476.8,559.1
480.0,560.0
483.2,560.8
486.4,561.7
489.6,562.5
492.8,563.3
496.0,564.0
499.2,564.8
502.4,565.5
505.6,566.3
508.8,567.0
512.0,567.7
515.2,568.3
518.4,569.0
521.6,569.6
524.8,570.3
528.0,570.9
531.2,571.5
534.4,572.1
537.6,572.6
540.8,573.2
544.0,573.7
547.2,574.3
550.4,574.8
553.6,575.3
556.8,575.8
560.0,576.3
563.2,576.8
566.4,577.3
569.6,577.8
572.8,578.3
576.0,578.7
579.2,579.2
582.4,579.6
585.6,580.1
588.8,580.5
592.0,580.9
595.2,581.4
598.4,581.8
601.6,582.2
604.8,582.6
608.0,583.0
611.2,583.4
614.4,583.8
617.6,584.2
620.8,584.6
624.0,585.0
627.2,585.4
630.4,585.8
633.6,586.2
636.8,586.5
640.0,586.9
643.2,587.3
646.4,587.7
649.6,588.1
652.8,588.4
656.0,588.8
659.2,589.2
662.4,589.6
665.6,589.9
668.8,590.3
672.0,590.7
675.2,591.0
678.4,591.4
681.6,591.8
684.8,592.1
688.0,592.5
691.2,592.9
694.4,593.3
697.6,593.6
700.8,594.0
704.0,594.4
707.2,594.8
710.4,595.1
713.6,595.5
716.8,595.9
720.0,596.3
723.2,596.6
726.4,597.0
729.6,597.4
732.8,597.8
736.0,598.2
739.2,598.6
742.4,598.9
745.6,599.3
748.8,599.7
752.0,600.1
755.2,600.5
758.4,600.9
761.6,601.3
764.8,601.7
768.0,602.1
771.2,602.5
774.4,602.9
777.6,603.3
780.8,603.8
784.0,604.2
787.2,604.6
790.4,605.0
793.6,605.4
796.8,605.9
800.0,606.3

File: NIST-StMU-FSRI_Gassification_q50_Mass_R3.csv
Time,Mass
[s],[g]
0.0,26.7
2.0,26.7
4.0,26.7
6.0,26.7
8.0,26.7
10.0,26.7
12.0,26.7
14.0,26.7
16.0,26.7
18.0,26.7
20.0,26.7
22.0,26.7
24.0,26.7
26.0,26.6
28.0,26.6
30.0,26.6
32.0,26.6
34.0,26.6
36.0,26.6
38.0,26.5
40.0,26.5
42.0,26.5
44.0,26.5
46.0,26.5
48.0,26.4
50.0,26.4
52.0,26.4
54.0,26.3
56.0,26.3
58.0,26.2
60.0,26.2
62.0,26.1
64.0,26.0
66.0,26.0
68.0,25.9
70.0,25.8
72.0,25.8
74.0,25.7
76.0,25.6
78.0,25.5
80.0,25.4
82.0,25.3
84.0,25.3
86.0,25.2
88.0,25.1
90.0,25.0
92.0,24.9
94.0,24.8
96.0,24.7
98.0,24.6
100.0,24.5
102.0,24.4
104.0,24.2
106.0,24.1
108.0,24.0
110.0,23.9
112.0,23.8
114.0,23.7
116.0,23.6
118.0,23.5
120.0,23.3
122.0,23.2
124.0,23.1
126.0,23.0
128.0,22.8
130.0,22.7
132.0,22.6
134.0,22.5
136.0,22.3
138.0,22.2
140.0,22.1
142.0,21.9
144.0,21.8
146.0,21.7
148.0,21.5
150.0,21.4
152.0,21.3
154.0,21.1
156.0,21.0
158.0,20.8
160.0,20.7
162.0,20.6
164.0,20.4
166.0,20.3
168.0,20.1
170.0,20.0
172.0,19.8
174.0,19.7
176.0,19.5
178.0,19.4
180.0,19.2
182.0,19.1
184.0,18.9
186.0,18.8
188.0,18.6
190.0,18.4
192.0,18.3
194.0,18.1
196.0,18.0
198.0,17.8
200.0,17.6
202.0,17.5
204.0,17.3
206.0,17.1
208.0,17.0
210.0,16.8
212.0,16.6
214.0,16.5
216.0,16.3
218.0,16.1
220.0,15.9
222.0,15.8
224.0,15.6
226.0,15.4
228.0,15.3
230.0,15.1
232.0,14.9
234.0,14.7
236.0,14.5
238.0,14.4
240.0,14.2
242.0,14.0
244.0,13.8
246.0,13.6
248.0,13.4
250.0,13.2
252.0,13.1
254.0,12.9
256.0,12.7
258.0,12.5
260.0,12.3
262.0,12.1
264.0,11.9
266.0,11.7
268.0,11.5
270.0,11.3
272.0,11.1
274.0,10.8
276.0,10.6
278.0,10.4
280.0,10.2
282.0,10.0
284.0,9.8
286.0,9.5
288.0,9.3
290.0,9.1
292.0,8.9
294.0,8.7
296.0,8.4
298.0,8.2
300.0,8.0
302.0,7.7
304.0,7.5
306.0,7.3
308.0,7.0
310.0,6.8
312.0,6.6
314.0,6.3
316.0,6.1
318.0,5.9
320.0,5.6
322.0,5.4
324.0,5.2
326.0,4.9
328.0,4.7
330.0,4.5
332.0,4.2
334.0,4.0
336.0,3.7
338.0,3.5
340.0,3.2
342.0,3.0
344.0,2.8
346.0,2.5
348.0,2.3
350.0,2.0
352.0,1.8
354.0,1.6
356.0,1.3
358.0,1.1
360.0,0.8
362.0,0.6
364.0,0.4
366.0,0.1
368.0,-0.1
370.0,-0.3
372.0,-0.5
374.0,-0.7
376.0,-0.9
378.0,-1.1
380.0,-1.2
382.0,-1.3
384.0,-1.3
386.0,-1.3
388.0,-1.3
390.0,-1.3
392.0,-1.3
394.0,-1.3
396.0,-1.3
398.0,-1.3
400.0,-1.3
402.0,-1.3
404.0,-1.3
406.0,-1.3
408.0,-1.3
410.0,-1.3
412.0,-1.3
414.0,-1.3
416.0,-1.3
418.0,-1.3
420.0,-1.3
422.0,-1.3
424.0,-1.3
426.0,-1.3
428.0,-1.3
430.0,-1.3
432.0,-1.3
434.0,-1.3
436.0,-1.3
438.0,-1.3
440.0,-1.3
442.0,-1.3
444.0,-1.3
446.0,-1.3
448.0,-1.3
450.0,-1.3
452.0,-1.3
454.0,-1.3
456.0,-1.3
458.0,-1.3
460.0,-1.3
462.0,-1.3
464.0,-1.3
466.0,-1.3
468.0,-1.3
470.0,-1.3
472.0,-1.3
474.0,-1.3
476.0,-1.3
478.0,-1.3
480.0,-1.3
482.0,-1.3
484.0,-1.3
486.0,-1.3
488.0,-1.3
490.0,-1.3
492.0,-1.3
494.0,-1.3
496.0,-1.3
498.0,-1.3
500.0,-1.3

File: NIST-StMU-FSRI_Gassification_q50_Temp_R1.csv
Time,T_back
[s],[K]
0.0,292.1
2.0,292.1
4.0,292.1
6.0,292.1
8.0,292.1
10.0,292.1
12.0,292.1
14.0,292.1
16.0,292.2
18.0,292.3
20.0,292.5
22.0,292.7
24.0,293.1
26.0,293.6
28.0,294.2
30.0,294.9
32.0,295.8
34.0,296.8
36.0,298.0
38.0,299.4
40.0,300.8
42.0,302.4
44.0,304.2
46.0,306.1
48.0,308.1
50.0,310.2
52.0,312.5
54.0,314.8
56.0,317.3
58.0,319.8
60.0,322.5
62.0,325.2
64.0,328.0
66.0,330.8
68.0,333.8
70.0,336.8
72.0,339.8
74.0,342.9
76.0,346.0
78.0,349.2
80.0,352.3
82.0,355.6
84.0,358.8
86.0,362.0
88.0,365.3
90.0,368.6
92.0,371.9
94.0,375.1
96.0,378.4
98.0,381.7
100.0,385.0
102.0,388.2
104.0,391.5
106.0,394.7
108.0,398.0
110.0,401.2
112.0,404.4
114.0,407.5
116.0,410.7
118.0,413.8
120.0,416.9
122.0,420.0
124.0,423.1
126.0,426.1
128.0,429.1
130.0,432.1
132.0,435.1
134.0,438.0
136.0,440.9
138.0,443.8
140.0,446.6
142.0,449.4
144.0,452.2
146.0,455.0
148.0,457.7
150.0,460.4
152.0,463.1
154.0,465.7
156.0,468.4
158.0,471.0
160.0,473.5
162.0,476.1
164.0,478.6
166.0,481.1
168.0,483.6
170.0,486.1
172.0,488.6
174.0,491.0
176.0,493.5
178.0,495.9
180.0,498.4
182.0,500.9
184.0,503.3
186.0,505.8
188.0,508.3
190.0,510.7
192.0,513.3
194.0,515.8
196.0,518.3
198.0,520.9
200.0,523.5
202.0,526.1
204.0,528.8
206.0,531.4
208.0,534.1
210.0,536.8
212.0,539.6
214.0,542.3
216.0,545.1
218.0,547.8
220.0,550.6
222.0,553.3
224.0,556.0
226.0,558.7
228.0,561.4
230.0,564.0
232.0,566.6
234.0,569.2
236.0,571.7
238.0,574.1
240.0,576.5
242.0,578.8
244.0,581.1
246.0,583.3
248.0,585.5
250.0,587.5
252.0,589.6
254.0,591.6
256.0,593.5
258.0,595.4
260.0,597.2
262.0,599.0
264.0,600.8
266.0,602.5
268.0,604.2
270.0,605.8
272.0,607.5
274.0,609.1
276.0,610.7
278.0,612.3
280.0,613.9
282.0,615.5
284.0,617.2
286.0,618.8
288.0,620.4
290.0,622.1
292.0,623.7
294.0,625.4
296.0,627.1
298.0,628.9
300.0,630.7
302.0,632.5
304.0,634.4
306.0,636.4
308.0,638.4
310.0,640.4
312.0,642.5
314.0,644.7
316.0,647.0
318.0,649.4
320.0,651.8
322.0,654.4
324.0,657.1
326.0,660.0
328.0,663.0
330.0,666.2
332.0,669.6
334.0,673.1
336.0,676.8
338.0,680.7
340.0,684.6
342.0,688.7
344.0,693.0
346.0,697.5
348.0,702.8
350.0,708.5
352.0,716.3
354.0,726.0
356.0,743.7
358.0,780.4
360.0,822.3
362.0,839.4
364.0,848.6
366.0,854.6
368.0,859.0
370.0,862.4
372.0,865.1
374.0,867.4
376.0,869.3
378.0,871.0
380.0,872.5
382.0,873.9
384.0,875.1
386.0,876.2
388.0,877.1
390.0,878.1
392.0,878.9
394.0,879.7
396.0,880.4
398.0,881.1
400.0,881.7
402.0,882.3
404.0,882.9
406.0,883.5
408.0,884.0
410.0,884.5
412.0,884.9
414.0,885.4
416.0,885.8
418.0,886.2
420.0,886.6
422.0,887.0
424.0,887.3
426.0,887.7
428.0,888.0
430.0,888.3
432.0,888.6
434.0,888.9
436.0,889.2
438.0,889.5
440.0,889.8
442.0,890.0
444.0,890.3
446.0,890.5
448.0,890.8
450.0,891.0
452.0,891.2
454.0,891.5
456.0,891.7
458.0,891.9
460.0,892.1
462.0,892.3
464.0,892.5
466.0,892.7
468.0,892.9
470.0,893.1
472.0,893.2
474.0,893.4
476.0,893.6
478.0,893.8
480.0,893.9
482.0,894.1
484.0,894.2
486.0,894.4
488.0,894.5
490.0,894.7
492.0,894.8
494.0,895.0
496.0,895.1
498.0,895.2
500.0,895.4

File: NIST-StMU-FSRI_Gassification_q50_Temp_R2.csv
Time,T_back
[s],[K]
0.0,292.6
2.0,292.6
4.0,292.6
6.0,292.6
8.0,292.6
10.0,292.6
12.0,292.6
14.0,292.6
16.0,292.6
18.0,292.7
20.0,292.8
22.0,293.0
24.0,293.3
26.0,293.7
28.0,294.2
30.0,294.8
32.0,295.5
34.0,296.3
36.0,297.3
38.0,298.4
40.0,299.7
42.0,301.1
44.0,302.6
46.0,304.2
48.0,306.0
50.0,307.9
52.0,309.8
54.0,311.9
56.0,314.1
58.0,316.4
60.0,318.8
62.0,321.2
64.0,323.8
66.0,326.4
68.0,329.1
70.0,331.8
72.0,334.6
74.0,337.4
76.0,340.3
78.0,343.2
80.0,346.2
82.0,349.2
84.0,352.2
86.0,355.3
88.0,358.3
90.0,361.4
92.0,364.5
94.0,367.6
96.0,370.7
98.0,373.8
100.0,376.9
102.0,380.0
104.0,383.1
106.0,386.2
108.0,389.3
110.0,392.4
112.0,395.5
114.0,398.5
116.0,401.6
118.0,404.6
120.0,407.6
122.0,410.6
124.0,413.6
126.0,416.6
128.0,419.5
130.0,422.4
132.0,425.3
134.0,428.2
136.0,431.0
138.0,433.9
140.0,436.7
142.0,439.4
144.0,442.2
146.0,444.9
148.0,447.6
150.0,450.3
152.0,453.0
154.0,455.6
156.0,458.2
158.0,460.8
160.0,463.3
162.0,465.9
164.0,468.4
166.0,470.9
168.0,473.3
170.0,475.8
172.0,478.2
174.0,480.6
176.0,483.0
178.0,485.4
180.0,487.8
182.0,490.2
184.0,492.6
186.0,495.0
188.0,497.3
190.0,499.7
192.0,502.1
194.0,504.5
196.0,506.9
198.0,509.3
200.0,511.8
202.0,514.2
204.0,516.7
206.0,519.2
208.0,521.7
210.0,524.3
212.0,526.8
214.0,529.4
216.0,532.0
218.0,534.7
220.0,537.3
222.0,540.0
224.0,542.7
226.0,545.4
228.0,548.1
230.0,550.8
232.0,553.5
234.0,556.2
236.0,558.8
238.0,561.4
240.0,564.0
242.0,566.6
244.0,569.1
246.0,571.5
248.0,573.9
250.0,576.3
252.0,578.5
254.0,580.8
256.0,583.0
258.0,585.1
260.0,587.1
262.0,589.1
264.0,591.1
266.0,593.0
268.0,594.9
270.0,596.7
272.0,598.5
274.0,600.2
276.0,602.0
278.0,603.6
280.0,605.3
282.0,606.9
284.0,608.6
286.0,610.2
288.0,611.8
290.0,613.4
292.0,615.0
294.0,616.6
296.0,618.2
298.0,619.8
300.0,621.4
302.0,623.1
304.0,624.8
306.0,626.5
308.0,628.2
310.0,630.0
312.0,631.8
314.0,633.7
316.0,635.6
318.0,637.6
320.0,639.6
322.0,641.7
324.0,643.9
326.0,646.1
328.0,648.5
330.0,650.9
332.0,653.4
334.0,656.1
336.0,659.0
338.0,662.0
340.0,665.1
342.0,668.4
344.0,671.8
346.0,675.5
348.0,679.3
350.0,683.3
352.0,687.3
354.0,691.5
356.0,696.0
358.0,701.0
360.0,706.4
362.0,713.6
364.0,721.9
366.0,736.9
368.0,765.3
370.0,812.7
372.0,835.2
374.0,846.2
376.0,853.1
378.0,857.9
380.0,861.6
382.0,864.5
384.0,867.0
386.0,869.0
388.0,870.8
390.0,872.4
392.0,873.7
394.0,875.0
396.0,876.1
398.0,877.1
400.0,878.1
402.0,878.9
404.0,879.7
406.0,880.5
408.0,881.2
410.0,881.8
412.0,882.5
414.0,883.0
416.0,883.6
418.0,884.1
420.0,884.6
422.0,885.1
424.0,885.5
426.0,886.0
428.0,886.4
430.0,886.8
432.0,887.1
434.0,887.5
436.0,887.9
438.0,888.2
440.0,888.5
442.0,888.8
444.0,889.1
446.0,889.4
448.0,889.7
450.0,890.0
452.0,890.3
454.0,890.5
456.0,890.8
458.0,891.0
460.0,891.2
462.0,891.5
464.0,891.7
466.0,891.9
468.0,892.1
470.0,892.3
472.0,892.5
474.0,892.7
476.0,892.9
478.0,893.1
480.0,893.3
482.0,893.5
484.0,893.6
486.0,893.8
488.0,894.0
490.0,894.1
492.0,894.3
494.0,894.5
496.0,894.6
498.0,894.8
500.0,894.9

File: NIST-StMU-FSRI_Gassification_q50_Temp_R5.csv
Time,T_back
[s],[K]
0.0,292.4
2.0,292.4
4.0,292.4
6.0,292.4
8.0,292.4
10.0,292.4
12.0,292.4
14.0,292.4
16.0,292.4
18.0,292.4
20.0,292.5
22.0,292.5
24.0,292.6
26.0,292.7
28.0,292.9
30.0,293.2
32.0,293.5
34.0,293.8
36.0,294.3
38.0,294.8
40.0,295.5
42.0,296.2
44.0,297.0
46.0,297.9
48.0,298.9
50.0,300.0
52.0,301.2
54.0,302.4
56.0,303.8
58.0,305.2
60.0,306.7
62.0,308.3
64.0,310.0
66.0,311.8
68.0,313.6
70.0,315.5
72.0,317.4
74.0,319.4
76.0,321.5
78.0,323.6
80.0,325.8
82.0,328.0
84.0,330.2
86.0,332.5
88.0,334.9
90.0,337.2
92.0,339.6
94.0,342.0
96.0,344.5
98.0,347.0
100.0,349.4
102.0,351.9
104.0,354.5
106.0,357.0
108.0,359.5
110.0,362.1
112.0,364.7
114.0,367.2
116.0,369.8
118.0,372.4
120.0,374.9
122.0,377.5
124.0,380.1
126.0,382.7
128.0,385.2
130.0,387.8
132.0,390.4
134.0,392.9
136.0,395.5
138.0,398.0
140.0,400.6
142.0,403.1
144.0,405.6
146.0,408.2
148.0,410.7
150.0,413.2
152.0,415.6
154.0,418.1
156.0,420.6
158.0,423.0
160.0,425.5
162.0,427.9
164.0,430.3
166.0,432.7
168.0,435.1
170.0,437.5
172.0,439.8
174.0,442.2
176.0,444.5
178.0,446.8
180.0,449.1
182.0,451.4
184.0,453.7
186.0,455.9
188.0,458.2
190.0,460.4
192.0,462.6
194.0,464.8
196.0,467.0
198.0,469.2
200.0,471.3
202.0,473.5
204.0,475.6
206.0,477.8
208.0,479.9
210.0,482.0
212.0,484.1
214.0,486.3
216.0,488.4
218.0,490.5
220.0,492.6
222.0,494.8
224.0,496.9
226.0,499.1
228.0,501.2
230.0,503.4
232.0,505.6
234.0,507.8
236.0,510.0
238.0,512.3
240.0,514.6
242.0,516.9
244.0,519.2
246.0,521.5
248.0,523.9
250.0,526.3
252.0,528.7
254.0,531.1
256.0,533.6
258.0,536.1
260.0,538.6
262.0,541.1
264.0,543.6
266.0,546.1
268.0,548.7
270.0,551.2
272.0,553.7
274.0,556.2
276.0,558.7
278.0,561.1
280.0,563.5
282.0,565.9
284.0,568.3
286.0,570.6
288.0,572.8
290.0,575.1
292.0,577.2
294.0,579.4
296.0,581.4
298.0,583.5
300.0,585.5
302.0,587.4
304.0,589.3
306.0,591.1
308.0,593.0
310.0,594.7
312.0,596.5
314.0,598.2
316.0,599.9
318.0,601.5
320.0,603.1
322.0,604.8
324.0,606.3
326.0,607.9
328.0,609.5
330.0,611.1
332.0,612.6
334.0,614.2
336.0,615.8
338.0,617.3
340.0,618.9
342.0,620.5
344.0,622.2
346.0,623.8
348.0,625.5
350.0,627.2
352.0,629.0
354.0,630.8
356.0,632.6
358.0,634.5
360.0,636.4
362.0,638.4
364.0,640.4
366.0,642.6
368.0,644.8
370.0,647.0
372.0,649.4
374.0,651.9
376.0,654.5
378.0,657.3
380.0,660.2
382.0,663.2
384.0,666.4
386.0,669.8
388.0,673.3
390.0,677.0
392.0,680.9
394.0,685.0
396.0,689.1
398.0,693.5
400.0,698.1
402.0,703.6
404.0,709.6
406.0,718.0
408.0,728.4
410.0,748.3
412.0,788.8
414.0,825.5
416.0,841.2
418.0,850.1
420.0,856.1
422.0,860.4
424.0,863.7
426.0,866.5
428.0,868.7
430.0,870.7
432.0,872.3
434.0,873.8
436.0,875.2
438.0,876.3
440.0,877.4
442.0,878.4
444.0,879.3
446.0,880.2
448.0,880.9
450.0,881.7
452.0,882.3
454.0,883.0
456.0,883.6
458.0,884.1
460.0,884.7
462.0,885.2
464.0,885.7
466.0,886.1
468.0,886.6
470.0,887.0
472.0,887.4
474.0,887.8
476.0,888.1
478.0,888.5
480.0,888.8
482.0,889.2
484.0,889.5
486.0,889.8
488.0,890.1
490.0,890.4
492.0,890.7
494.0,890.9
496.0,891.2
498.0,891.4
500.0,891.7