Folder: matl-db/PMMA/Validation_Results/NIST-FSRI

File: NIST-FSRI_Gasification_q25_Temp_T2.csv
Time,T_back
[s],[K]
0,294.5
2,294.5
4,294.5
6,294.5
8,294.5
10,294.5
12,294.5
14,294.5
16,294.6
18,294.6
20,294.7
22,294.9
24,295.1
26,295.4
28,295.8
30,296.3
32,296.9
34,297.5
36,298.3
38,299.2
40,300.1
42,301.1
44,302.2
46,303.4
48,304.7
50,306.0
52,307.4
54,308.9
56,310.4
58,312.0
60,313.7
62,315.4
64,317.1
66,318.9
68,320.7
70,322.6
72,324.4
74,326.4
76,328.3
78,330.3
80,332.3
82,334.3
84,336.3
86,338.4
88,340.4
90,342.5
92,344.6
94,346.7
96,348.8
98,350.9
100,353.0
102,355.2
104,357.3
106,359.4
108,361.5
110,363.7
112,365.8
114,367.9
116,370.1
118,372.2
120,374.3
122,376.4
124,378.5
126,380.6
128,382.7
130,384.8
132,386.9
134,389.0
136,391.0
138,393.1
140,395.1
142,397.2
144,399.2
146,401.2
148,403.2
150,405.2
152,407.2
154,409.2
156,411.2
158,413.1
160,415.1
162,417.0
164,418.9
166,420.8
168,422.7
170,424.6
172,426.5
174,428.3
176,430.2
178,432.0
180,433.8
182,435.7
184,437.5
186,439.2
188,441.0
190,442.8
192,444.5
194,446.2
196,447.9
198,449.6
200,451.3
202,453.0
204,454.7
206,456.3
208,457.9
210,459.6
212,461.2
214,462.8
216,464.3
218,465.9
220,467.5
222,469.0
224,470.5
226,472.0
228,473.5
230,475.0
232,476.5
234,478.0
236,479.4
238,480.8
240,482.3
242,483.7
244,485.1
246,486.5
248,487.8
250,489.2
252,490.5
254,491.9
256,493.2
258,494.5
260,495.8
262,497.1
264,498.4
266,499.6
268,500.9
270,502.1
272,503.3
274,504.5
276,505.7
278,506.9
280,508.1
282,509.3
284,510.4
286,511.6
288,512.7
290,513.8
292,514.9
294,516.0
296,517.1
298,518.2
300,519.3
302,520.3
304,521.4
306,522.4
308,523.4
310,524.5
312,525.5
314,526.5
316,527.4
318,528.4
320,529.4
322,530.3
324,531.3
326,532.2
328,533.1
330,534.0
332,534.9
334,535.8
336,536.7
338,537.6
340,538.4
342,539.3
344,540.1
346,541.0
348,541.8
350,542.6
352,543.4
354,544.2
356,545.0
358,545.8
360,546.5
362,547.3
364,548.0
366,548.8
368,549.5
370,550.2
372,550.9
374,551.6
376,552.3
378,553.0
380,553.7
382,554.3
384,555.0
386,555.7
388,556.3
390,556.9
392,557.5
394,558.2
396,558.8
398,559.4
400,560.0
402,560.5
404,561.1
406,561.7
408,562.2
410,562.8
412,563.3
414,563.9
416,564.4
418,564.9
420,565.4
422,565.9
424,566.4
426,566.9
428,567.4
430,567.9
432,568.4
434,568.8
436,569.3
438,569.7
440,570.2
442,570.6
444,571.1
446,571.5
448,571.9
450,572.4
452,572.8
454,573.2
456,573.6
458,574.0
460,574.4
462,574.8
464,575.2
466,575.5
468,575.9
470,576.3
472,576.7
474,577.0
476,577.4
478,577.7
480,578.1
482,578.4
484,578.8
486,579.1
488,579.5
490,579.8
492,580.2
494,580.5
496,580.8
498,581.1
500,581.5

File: NIST-FSRI_Gasification_q25_Temp_T3.csv
Time,T_back
[s],[K]
0,294.7
2,294.7
4,294.7
6,294.7
8,294.7
10,294.7
12,294.7
14,294.7
16,294.8
18,294.9
20,295.1
22,295.4
24,295.8
26,296.3
28,296.9
30,297.7
32,298.5
34,299.5
36,300.6
38,301.8
40,303.1
42,304.4
44,305.9
46,307.5
48,309.1
50,310.8
52,312.6
54,314.5
56,316.4
58,318.3
60,320.3
62,322.4
64,324.5
66,326.6
68,328.8
70,331.0
72,333.2
74,335.4
76,337.7
78,340.0
80,342.3
82,344.6
84,346.9
86,349.3
88,351.6
90,353.9
92,356.3
94,358.7
96,361.0
98,363.4
100,365.7
102,368.1
104,370.5
106,372.8
108,375.1
110,377.5
112,379.8
114,382.1
116,384.5
118,386.8
120,389.1
122,391.4
124,393.6
126,395.9
128,398.2
130,400.4
132,402.6
134,404.9
136,407.1
138,409.3
140,411.5
142,413.6
144,415.8
146,417.9
148,420.1
150,422.2
152,424.3
154,426.4
156,428.4
158,430.5
160,432.5
162,434.6
164,436.6
166,438.6
168,440.6
170,442.5
172,444.5
174,446.4
176,448.3
178,450.2
180,452.1
182,454.0
184,455.8
186,457.6
188,459.5
190,461.3
192,463.0
194,464.8
196,466.6
198,468.3
200,470.0
202,471.7
204,473.4
206,475.1
208,476.7
210,478.4
212,480.0
214,481.6
216,483.2
218,484.8
220,486.3
222,487.9
224,489.4
226,490.9
228,492.4
230,493.9
232,495.3
234,496.8
236,498.2
238,499.6
240,501.0
242,502.4
244,503.8
246,505.1
248,506.5
250,507.8
252,509.1
254,510.4
256,511.7
258,513.0
260,514.2
262,515.5
264,516.7
266,517.9
268,519.1
270,520.3
272,521.5
274,522.6
276,523.8
278,524.9
280,526.0
282,527.2
284,528.2
286,529.3
288,530.4
290,531.5
292,532.5
294,533.5
296,534.5
298,535.5
300,536.5
302,537.5
304,538.5
306,539.4
308,540.4
310,541.3
312,542.2
314,543.1
316,544.0
318,544.9
320,545.8
322,546.6
324,547.5
326,548.3
328,549.1
330,549.9
332,550.7
334,551.5
336,552.3
338,553.0
340,553.8
342,554.5
344,555.3
346,556.0
348,556.7
350,557.4
352,558.1
354,558.8
356,559.4
358,560.1
360,560.7
362,561.4
364,562.0
366,562.6
368,563.2
370,563.8
372,564.4
374,565.0
376,565.6
378,566.1
380,566.7
382,567.2
384,567.8
386,568.3
388,568.8
390,569.3
392,569.8
394,570.3
396,570.8
398,571.3
400,571.8
402,572.2
404,572.7
406,573.1
408,573.6
410,574.0
412,574.5
414,574.9
416,575.3
418,575.7
420,576.2
422,576.6
424,577.0
426,577.4
428,577.8
430,578.1
432,578.5
434,578.9
436,579.3
438,579.6
440,580.0
442,580.4
444,580.7
446,581.1
448,581.4
450,581.8
452,582.1
454,582.5
456,582.8
458,583.1
460,583.5
462,583.8
464,584.1
466,584.5
468,584.8
470,585.1
472,585.4
474,585.7
476,586.1
478,586.4
480,586.7
482,587.0
484,587.3
486,587.6
488,587.9
490,588.2
492,588.5
494,588.8
496,589.1
498,589.4
500,589.8