Folder: matl-db/PMMA/Validation_Results/NIST-StMU-FSRI

File: NIST-StMU-FSRI_Gasification_q25_Temp_R2.csv
Time,T_back
[s],[K]
0.0,294.5
3.2,294.5
6.4,294.5
9.6,294.5
12.8,294.5
16.0,294.5
19.2,294.5
22.4,294.6
25.6,294.7
28.8,294.8
32.0,295.0
35.2,295.3
38.4,295.8
41.6,296.3
44.8,296.9
48.0,297.7
51.2,298.6
54.4,299.7
57.6,300.7
60.8,302.0
64.0,303.3
67.2,304.9
70.4,306.4
73.6,308.0
76.8,309.8
80.0,311.5
83.2,313.2
86.4,315.4
89.6,317.1
92.8,319.5
96.0,321.5
99.2,323.9
102.4,325.7
105.6,328.2
108.8,330.8
112.0,332.9
115.2,335.1
118.4,337.3
121.6,340.1
124.8,342.2
128.0,344.9
131.2,346.9
134.4,349.9
137.6,352.1
140.8,354.5
144.0,357.2
147.2,359.2
150.4,361.9
153.6,364.4
156.8,366.8
160.0,369.1
163.2,371.6
166.4,374.5
169.6,377.0
172.8,378.1
176.0,381.9
179.2,383.4
182.4,386.2
185.6,388.5
188.8,390.5
192.0,393.7
195.2,396.3
198.4,398.8
201.6,400.4
204.8,402.0
208.0,405.3
211.2,406.9
214.4,409.0
217.6,411.5
220.8,413.9
224.0,416.2
227.2,418.2
230.4,421.1
233.6,423.1
236.8,424.7
240.0,427.0
243.2,429.3
246.4,430.9
249.6,432.4
252.8,434.7
256.0,438.8
259.2,440.7
262.4,442.6
265.6,444.5
268.8,446.4
272.0,448.2
275.2,450.0
278.4,451.7
281.6,453.5
284.8,455.2
288.0,456.9
291.2,458.6
294.4,460.3
297.6,461.9
300.8,463.6
304.0,465.2
307.2,466.8
310.4,468.3
313.6,469.9
316.8,471.4
320.0,473.0
323.2,474.5
326.4,476.0
329.6,477.5
332.8,479.0
336.0,480.5
339.2,482.0
342.4,483.5
345.6,485.0
348.8,486.4
352.0,487.9
355.2,489.4
358.4,490.9
361.6,492.3
364.8,493.8
368.0,495.3
371.2,496.8
374.4,498.2
377.6,499.7
380.8,501.2
384.0,502.7
387.2,504.2
390.4,505.7
393.6,507.1
396.8,508.6
400.0,510.1
403.2,511.6
406.4,513.1
409.6,514.6
412.8,516.0
416.0,517.5
419.2,519.0
422.4,520.4
425.6,521.9
428.8,523.3
432.0,524.7
435.2,526.1
438.4,527.5
441.6,528.9
444.8,530.2
448.0,531.6
451.2,532.9
454.4,534.2
457.6,535.5
460.8,536.7
464.0,538.0
467.2,539.2
470.4,540.4
473.6,541.5
476.8,542.7
480.0,543.8
483.2,544.9
486.4,546.0
489.6,547.0
492.8,548.0
496.0,549.1
499.2,550.0
502.4,551.0
505.6,552.0
508.8,552.9
512.0,553.8
515.2,554.7
518.4,555.5
521.6,556.4
524.8,557.2
528.0,558.0
531.2,558.8
534.4,559.6
537.6,560.4
540.8,561.1
544.0,561.9
547.2,562.6
550.4,563.3
553.6,564.0
556.8,564.6
560.0,565.3
563.2,565.9
566.4,566.6
569.6,567.2
572.8,567.8
576.0,568.4
579.2,569.0
582.4,569.5
585.6,570.1
588.8,570.6
592.0,571.2
595.2,571.7
598.4,572.2
601.6,572.7
604.8,573.2
608.0,573.7
611.2,574.2
614.4,574.7
617.6,575.2
620.8,575.6
624.0,576.1
627.2,576.5
630.4,577.0
633.6,577.4
636.8,577.8
640.0,578.2
643.2,578.7
646.4,579.1
649.6,579.5
652.8,579.9
656.0,580.3
659.2,580.7
662.4,581.1
665.6,581.5
668.8,581.9
672.0,582.2
675.2,582.6
678.4,583.0
681.6,583.4
684.8,583.8
688.0,584.1
691.2,584.5
694.4,584.9
697.6,585.2
700.8,585.6
704.0,586.0
707.2,586.3
710.4,586.7
713.6,587.0
716.8,587.4
720.0,587.8
723.2,588.1
726.4,588.5
729.6,588.8
732.8,589.2
736.0,589.5
739.2,589.9
742.4,590.3
745.6,590.6
748.8,591.0
752.0,591.3
755.2,591.7
758.4,592.1
761.6,592.4
764.8,592.8
768.0,593.1
771.2,593.5
774.4,593.9
777.6,594.2
780.8,594.6
784.0,594.9
787.2,595.3
790.4,595.7
793.6,596.1
796.8,596.4
800.0,596.8

File: NIST-StMU-FSRI_Gasification_q50_Mass_R4.csv
Time,Mass
[s],[g]
0.0,25.6
2.0,25.6
4.0,25.6
6.0,25.6
8.0,25.6
10.0,25.6
12.0,25.6
14.0,25.6
16.0,25.6
18.0,25.6
20.0,25.6
22.0,25.6
24.0,25.6
26.0,25.6
28.0,25.6
30.0,25.6
32.0,25.6
34.0,25.5
36.0,25.5
38.0,25.5
40.0,25.5
42.0,25.5
44.0,25.4
46.0,25.4
48.0,25.4
50.0,25.4
52.0,25.3
54.0,25.3
56.0,25.2
58.0,25.2
60.0,25.1
62.0,25.1
64.0,25.0
66.0,24.9
68.0,24.9
70.0,24.8
72.0,24.7
74.0,24.6
76.0,24.6
78.0,24.5
80.0,24.4
82.0,24.3
84.0,24.2
86.0,24.1
88.0,24.0
90.0,23.9
92.0,23.8
94.0,23.7
96.0,23.6
98.0,23.5
100.0,23.4
102.0,23.3
104.0,23.2
106.0,23.1
108.0,23.0
110.0,22.9
112.0,22.8
114.0,22.6
116.0,22.5
118.0,22.4
120.0,22.3
122.0,22.2
124.0,22.0
126.0,21.9
128.0,21.8
130.0,21.7
132.0,21.5
134.0,21.4
136.0,21.3
138.0,21.2
140.0,21.0
142.0,20.9
144.0,20.8
146.0,20.6
148.0,20.5
150.0,20.4
152.0,20.2
154.0,20.1
156.0,19.9
158.0,19.8
160.0,19.7
162.0,19.5
164.0,19.4
166.0,19.2
168.0,19.1
170.0,18.9
172.0,18.8
174.0,18.6
176.0,18.5
178.0,18.3
180.0,18.2
182.0,18.0
184.0,17.9
186.0,17.7
188.0,17.5
190.0,17.4
192.0,17.2
194.0,17.1
196.0,16.9
198.0,16.7
200.0,16.6
202.0,16.4
204.0,16.2
206.0,16.1
208.0,15.9
210.0,15.7
212.0,15.6
214.0,15.4
216.0,15.2
218.0,15.1
220.0,14.9
222.0,14.7
224.0,14.5
226.0,14.4
228.0,14.2
230.0,14.0
232.0,13.8
234.0,13.7
236.0,13.5
238.0,13.3
240.0,13.1
242.0,12.9
244.0,12.8
246.0,12.6
248.0,12.4
250.0,12.2
252.0,12.0
254.0,11.8
256.0,11.6
258.0,11.4
260.0,11.2
262.0,11.0
264.0,10.8
266.0,10.6
268.0,10.4
270.0,10.2
272.0,10.0
274.0,9.8
276.0,9.6
278.0,9.3
280.0,9.1
282.0,8.9
284.0,8.7
286.0,8.5
288.0,8.3
290.0,8.0
292.0,7.8
294.0,7.6
296.0,7.4
298.0,7.1
300.0,6.9
302.0,6.7
304.0,6.4
306.0,6.2
308.0,6.0
310.0,5.7
312.0,5.5
314.0,5.3
316.0,5.0
318.0,4.8
320.0,4.6
322.0,4.3
324.0,4.1
326.0,3.9
328.0,3.6
330.0,3.4
332.0,3.1
334.0,2.9
336.0,2.7
338.0,2.4
340.0,2.2
342.0,1.9
344.0,1.7
346.0,1.4
348.0,1.2
350.0,1.0
352.0,0.7
354.0,0.5
356.0,0.2
358.0,0.0
360.0,-0.2
362.0,-0.5
364.0,-0.7
366.0,-0.9
368.0,-1.2
370.0,-1.4
372.0,-1.6
374.0,-1.8
376.0,-2.0
378.0,-2.1
380.0,-2.2
382.0,-2.3
384.0,-2.3
386.0,-2.3
388.0,-2.3
390.0,-2.3
392.0,-2.3
394.0,-2.3
396.0,-2.3
398.0,-2.3
400.0,-2.3
402.0,-2.3
404.0,-2.3
406.0,-2.3
408.0,-2.3
410.0,-2.3
412.0,-2.3
414.0,-2.3
416.0,-2.3
418.0,-2.3
420.0,-2.3
422.0,-2.3
424.0,-2.3
426.0,-2.3
428.0,-2.3
430.0,-2.3
432.0,-2.3
434.0,-2.3
436.0,-2.3
438.0,-2.3
440.0,-2.3
442.0,-2.3
444.0,-2.3
446.0,-2.3
448.0,-2.3
450.0,-2.3
452.0,-2.3
454.0,-2.3
456.0,-2.3
458.0,-2.3
460.0,-2.3
462.0,-2.3
464.0,-2.3
466.0,-2.3
468.0,-2.3
470.0,-2.3
472.0,-2.3
474.0,-2.3
476.0,-2.3
478.0,-2.3
480.0,-2.3
482.0,-2.3
484.0,-2.3
486.0,-2.3
488.0,-2.3
490.0,-2.3
492.0,-2.3
494.0,-2.3
496.0,-2.3
498.0,-2.3
500.0,-2.3

File: NIST-StMU-FSRI_Gasification_q50_Mass_R5.csv
Time,Mass
[s],[g]
0.0,28.1
2.0,28.1
4.0,28.1
6.0,28.1
8.0,28.1
10.0,28.1
12.0,28.1
14.0,28.1
16.0,28.1
18.0,28.1
20.0,28.1
22.0,28.1
24.0,28.1
26.0,28.1
28.0,28.1
30.0,28.0
32.0,28.0
34.0,28.0
36.0,28.0
38.0,28.0
40.0,28.0
42.0,27.9
44.0,27.9
46.0,27.9
48.0,27.9
50.0,27.8
52.0,27.8
54.0,27.7
56.0,27.7
58.0,27.7
60.0,27.6
62.0,27.5
64.0,27.5
66.0,27.4
68.0,27.3
70.0,27.3
72.0,27.2
74.0,27.1
76.0,27.0
78.0,26.9
80.0,26.9
82.0,26.8
84.0,26.7
86.0,26.6
88.0,26.5
90.0,26.4
92.0,26.3
94.0,26.2
96.0,26.1
98.0,26.0
100.0,25.9
102.0,25.8
104.0,25.7
106.0,25.6
108.0,25.5
110.0,25.4
112.0,25.2
114.0,25.1
116.0,25.0
118.0,24.9
120.0,24.8
122.0,24.7
124.0,24.5
126.0,24.4
128.0,24.3
130.0,24.2
132.0,24.1
134.0,23.9
136.0,23.8
138.0,23.7
140.0,23.6
142.0,23.4
144.0,23.3
146.0,23.2
148.0,23.0
150.0,22.9
152.0,22.8
154.0,22.6
156.0,22.5
158.0,22.4
160.0,22.2
162.0,22.1
164.0,22.0
166.0,21.8
168.0,21.7
170.0,21.5
172.0,21.4
174.0,21.2
176.0,21.1
178.0,21.0
180.0,20.8
182.0,20.7
184.0,20.5
186.0,20.4
188.0,20.2
190.0,20.1
192.0,19.9
194.0,19.8
196.0,19.6
198.0,19.4
200.0,19.3
202.0,19.1
204.0,19.0
206.0,18.8
208.0,18.7
210.0,18.5
212.0,18.3
214.0,18.2
216.0,18.0
218.0,17.8
220.0,17.7
222.0,17.5
224.0,17.3
226.0,17.2
228.0,17.0
230.0,16.8
232.0,16.7
234.0,16.5
236.0,16.3
238.0,16.2
240.0,16.0
242.0,15.8
244.0,15.6
246.0,15.5
248.0,15.3
250.0,15.1
252.0,14.9
254.0,14.8
256.0,14.6
258.0,14.4
260.0,14.2
262.0,14.0
264.0,13.9
266.0,13.7
268.0,13.5
270.0,13.3
272.0,13.1
274.0,12.9
276.0,12.7
278.0,12.5
280.0,12.3
282.0,12.1
284.0,11.9
286.0,11.7
288.0,11.5
290.0,11.3
292.0,11.1
294.0,10.9
296.0,10.7
298.0,10.5
300.0,10.3
302.0,10.1
304.0,9.9
306.0,9.6
308.0,9.4
310.0,9.2
312.0,9.0
314.0,8.8
316.0,8.5
318.0,8.3
320.0,8.1
322.0,7.9
324.0,7.6
326.0,7.4
328.0,7.2
330.0,6.9
332.0,6.7
334.0,6.5
336.0,6.2
338.0,6.0
340.0,5.8
342.0,5.5
344.0,5.3
346.0,5.1
348.0,4.8
350.0,4.6
352.0,4.4
354.0,4.1
356.0,3.9
358.0,3.6
360.0,3.4
362.0,3.2
364.0,2.9
366.0,2.7
368.0,2.4
370.0,2.2
372.0,2.0
374.0,1.7
376.0,1.5
378.0,1.2
380.0,1.0
382.0,0.7
384.0,0.5
386.0,0.3
388.0,0.0
390.0,-0.2
392.0,-0.4
394.0,-0.7
396.0,-0.9
398.0,-1.1
400.0,-1.3
402.0,-1.5
404.0,-1.7
406.0,-1.8
408.0,-1.9
410.0,-1.9
412.0,-1.9
414.0,-1.9
416.0,-1.9
418.0,-1.9
420.0,-1.9
422.0,-1.9
424.0,-1.9
426.0,-1.9
428.0,-1.9
430.0,-1.9
432.0,-1.9
434.0,-1.9
436.0,-1.9
438.0,-1.9
440.0,-1.9
442.0,-1.9
444.0,-1.9
446.0,-1.9
448.0,-1.9
450.0,-1.9
452.0,-1.9
454.0,-1.9
456.0,-1.9
458.0,-1.9
460.0,-1.9
462.0,-1.9
464.0,-1.9
466.0,-1.9
468.0,-1.9
470.0,-1.9
472.0,-1.9
474.0,-1.9
476.0,-1.9
478.0,-1.9
480.0,-1.9
482.0,-1.9
484.0,-1.9
486.0,-1.9
488.0,-1.9
490.0,-1.9
492.0,-1.9
494.0,-1.9
496.0,-1.9
498.0,-1.9
500.0,-1.9

File: NIST-StMU-FSRI_Gasification_q50_Temp_R3.csv
Time,T_back
[s],[K]
0.0,292.4
2.0,292.3
4.0,292.3
6.0,292.4
8.0,292.4
10.0,292.4
12.0,292.4
14.0,292.4
16.0,292.4
18.0,292.4
20.0,292.4
22.0,292.5
24.0,292.6
26.0,292.8
28.0,293.0
30.0,293.3
32.0,293.6
34.0,294.1
36.0,294.6
38.0,295.2
40.0,295.9
42.0,296.7
44.0,297.6
46.0,298.6
48.0,299.7
50.0,300.9
52.0,302.2
54.0,303.6
56.0,305.0
58.0,306.6
60.0,308.2
62.0,309.9
64.0,311.7
66.0,313.6
68.0,315.6
70.0,317.6
72.0,319.6
74.0,321.8
76.0,324.0
78.0,326.2
80.0,328.5
82.0,330.8
84.0,333.2
86.0,335.6
88.0,338.1
90.0,340.5
92.0,343.0
94.0,345.6
96.0,348.1
98.0,350.7
100.0,353.3
102.0,355.9
104.0,358.5
106.0,361.1
108.0,363.8
110.0,366.4
112.0,369.0
114.0,371.7
116.0,374.3
118.0,377.0
120.0,379.6
122.0,382.3
124.0,384.9
126.0,387.6
128.0,390.2
130.0,392.9
132.0,395.5
134.0,398.1
136.0,400.7
138.0,403.3
140.0,405.9
142.0,408.5
144.0,411.1
146.0,413.6
148.0,416.2
150.0,418.7
152.0,421.2
154.0,423.8
156.0,426.3
158.0,428.7
160.0,431.2
162.0,433.7
164.0,436.1
166.0,438.5
168.0,440.9
170.0,443.3
172.0,445.7
174.0,448.1
176.0,450.4
178.0,452.7
180.0,455.0
182.0,457.3
184.0,459.6
186.0,461.9
188.0,464.1
190.0,466.4
192.0,468.6
194.0,470.8
196.0,473.0
198.0,475.2
200.0,477.4
202.0,479.5
204.0,481.7
206.0,483.9
208.0,486.0
210.0,488.2
212.0,490.4
214.0,492.5
216.0,494.7
218.0,496.9
220.0,499.0
222.0,501.2
224.0,503.4
226.0,505.7
228.0,507.9
230.0,510.2
232.0,512.4
234.0,514.7
236.0,517.1
238.0,519.4
240.0,521.8
242.0,524.2
244.0,526.6
246.0,529.0
248.0,531.5
250.0,534.0
252.0,536.5
254.0,539.0
256.0,541.6
258.0,544.1
260.0,546.7
262.0,549.2
264.0,551.8
266.0,554.3
268.0,556.8
270.0,559.3
272.0,561.8
274.0,564.2
276.0,566.6
278.0,569.0
280.0,571.3
282.0,573.6
284.0,575.8
286.0,578.0
288.0,580.1
290.0,582.2
292.0,584.2
294.0,586.2
296.0,588.1
298.0,590.0
300.0,591.9
302.0,593.7
304.0,595.5
306.0,597.2
308.0,598.9
310.0,600.6
312.0,602.3
314.0,603.9
316.0,605.5
318.0,607.1
320.0,608.7
322.0,610.2
324.0,611.8
326.0,613.4
328.0,615.0
330.0,616.5
332.0,618.1
334.0,619.7
336.0,621.4
338.0,623.0
340.0,624.7
342.0,626.4
344.0,628.1
346.0,629.9
348.0,631.7
350.0,633.5
352.0,635.5
354.0,637.4
356.0,639.4
358.0,641.5
360.0,643.7
362.0,645.9
364.0,648.3
366.0,650.7
368.0,653.2
370.0,655.9
372.0,658.8
374.0,661.8
376.0,664.9
378.0,668.2
380.0,671.6
382.0,675.3
384.0,679.1
386.0,683.1
388.0,687.1
390.0,691.3
392.0,695.9
394.0,700.9
396.0,706.4
398.0,713.6
400.0,722.0
402.0,737.1
404.0,765.6
406.0,812.1
408.0,835.0
410.0,846.3
412.0,853.4
414.0,858.3
416.0,862.1
418.0,865.1
420.0,867.6
422.0,869.6
424.0,871.4
426.0,873.0
428.0,874.4
430.0,875.6
432.0,876.8
434.0,877.8
436.0,878.7
438.0,879.6
440.0,880.4
442.0,881.2
444.0,881.9
446.0,882.5
448.0,883.1
450.0,883.7
452.0,884.3
454.0,884.8
456.0,885.3
458.0,885.8
460.0,886.2
462.0,886.6
464.0,887.1
466.0,887.4
468.0,887.8
470.0,888.2
472.0,888.5
474.0,888.9
476.0,889.2
478.0,889.5
480.0,889.8
482.0,890.1
484.0,890.4
486.0,890.7
488.0,890.9
490.0,891.2
492.0,891.4
494.0,891.7
496.0,891.9
498.0,892.1
500.0,892.4

File: NIST-StMU-FSRI_Gasification_q50_Temp_R4.csv
Time,T_back
[s],[K]
0.0,293.6
2.0,293.6
4.0,293.6
6.0,293.6
8.0,293.6
10.0,293.6
12.0,293.6
14.0,293.6
16.0,293.6
18.0,293.6
20.0,293.7
22.0,293.8
24.0,293.9
26.0,294.1
28.0,294.3
30.0,294.5
32.0,295.0
34.0,295.4
36.0,296.0
38.0,296.5
40.0,297.5
42.0,298.2
44.0,299.2
46.0,300.0
48.0,301.3
50.0,302.8
52.0,304.2
54.0,305.1
56.0,306.5
58.0,308.7
60.0,309.7
62.0,311.8
64.0,313.8
66.0,315.7
68.0,317.9
70.0,320.3
72.0,321.9
74.0,323.8
76.0,326.4
78.0,328.3
80.0,331.1
82.0,333.5
84.0,335.7
86.0,338.2
88.0,340.2
90.0,343.8
92.0,346.0
94.0,347.8
96.0,351.0
98.0,354.1
100.0,355.7
102.0,357.9
104.0,361.5
106.0,364.6
108.0,366.4
110.0,369.6
112.0,372.0
114.0,374.6
116.0,378.0
118.0,379.5
120.0,382.3
122.0,384.7
124.0,388.3
126.0,390.4
128.0,392.6
130.0,397.3
132.0,398.7
134.0,401.4
136.0,404.7
138.0,406.7
140.0,409.9
142.0,412.7
144.0,414.9
146.0,417.7
148.0,421.0
150.0,422.3
152.0,425.6
154.0,427.5
156.0,428.8
158.0,432.8
160.0,436.1
162.0,437.2
164.0,439.0
166.0,440.7
168.0,445.5
170.0,447.9
172.0,449.6
174.0,450.9
176.0,453.6
178.0,458.7
180.0,461.4
182.0,463.7
184.0,465.9
186.0,468.2
188.0,470.5
190.0,472.7
192.0,474.9
194.0,477.1
196.0,479.4
198.0,481.6
200.0,483.8
202.0,486.0
204.0,488.1
206.0,487.4
208.0,488.5
210.0,491.0
212.0,493.6
214.0,496.2
216.0,497.2
218.0,500.6
220.0,502.1
222.0,504.7
224.0,508.1
226.0,510.4
228.0,512.3
230.0,513.9
232.0,517.4
234.0,519.0
236.0,522.2
238.0,523.4
240.0,526.7
242.0,532.0
244.0,534.5
246.0,537.1
248.0,539.6
250.0,542.2
252.0,544.8
254.0,547.3
256.0,549.9
258.0,552.5
260.0,555.0
262.0,557.6
264.0,560.1
266.0,562.6
268.0,565.0
270.0,567.4
272.0,569.8
274.0,572.1
276.0,574.4
278.0,576.6
280.0,578.8
282.0,580.9
284.0,583.0
286.0,585.1
288.0,587.0
290.0,589.0
292.0,590.9
294.0,592.7
296.0,594.5
298.0,596.3
300.0,598.0
302.0,599.7
304.0,601.4
306.0,603.1
308.0,604.7
310.0,606.3
312.0,607.9
314.0,609.5
316.0,611.1
318.0,612.6
320.0,614.2
322.0,615.8
324.0,617.4
326.0,619.0
328.0,620.6
330.0,622.3
332.0,623.9
334.0,625.6
336.0,627.3
338.0,629.1
340.0,630.9
342.0,632.7
344.0,634.6
346.0,636.6
348.0,638.6
350.0,640.6
352.0,642.8
354.0,645.0
356.0,647.3
358.0,649.6
360.0,652.1
362.0,654.8
364.0,657.6
366.0,660.5
368.0,663.6
370.0,666.8
372.0,670.2
374.0,673.7
376.0,677.5
378.0,681.4
380.0,685.4
382.0,689.6
384.0,693.9
386.0,698.7
388.0,704.2
390.0,710.3
392.0,718.4
394.0,729.8
396.0,750.9
398.0,793.8
400.0,827.8
402.0,842.4
404.0,850.8
406.0,856.5
408.0,860.7
410.0,864.0
412.0,866.6
414.0,868.9
416.0,870.8
418.0,872.4
420.0,873.9
422.0,875.2
424.0,876.4
426.0,877.4
428.0,878.4
430.0,879.3
432.0,880.1
434.0,880.9
436.0,881.6
438.0,882.3
440.0,882.9
442.0,883.5
444.0,884.1
446.0,884.6
448.0,885.1
450.0,885.6
452.0,886.1
454.0,886.5
456.0,886.9
458.0,887.3
460.0,887.7
462.0,888.1
464.0,888.4
466.0,888.8
468.0,889.1
470.0,889.4
472.0,889.7
474.0,890.0
476.0,890.3
478.0,890.6
480.0,890.9
482.0,891.1
484.0,891.4
486.0,891.6
488.0,891.9
490.0,892.1
492.0,892.3
494.0,892.5
496.0,892.7
498.0,892.9
500.0,893.1