Folder: matl-db/PMMA/Validation_Results/NIST_FSRI

File: NIST_FSRI_Gasification_q50_Temp_T3.csv
Time,T_back
[s],[K]
0,292.4
2,292.4
4,292.4
6,292.4
8,292.4
10,292.4
12,292.4
14,292.4
16,292.4
18,292.4
20,292.4
22,292.4
24,292.4
26,292.5
28,292.6
30,292.7
32,292.9
34,293.1
36,293.3
38,293.7
40,294.0
42,294.5
44,295.0
46,295.6
48,296.2
50,296.9
52,297.7
54,298.6
56,299.5
58,300.5
60,301.6
62,302.7
64,303.9
66,305.2
68,306.5
70,307.9
72,309.4
74,310.8
76,312.4
78,314.0
80,315.6
82,317.3
84,319.0
86,320.8
88,322.6
90,324.4
92,326.3
94,328.1
96,330.1
98,332.0
100,334.0
102,335.9
104,337.9
106,339.9
108,342.0
110,344.0
112,346.1
114,348.1
116,350.2
118,352.3
120,354.4
122,356.5
124,358.6
126,360.7
128,362.9
130,365.0
132,367.1
134,369.3
136,371.4
138,373.5
140,375.7
142,377.8
144,380.0
146,382.1
148,384.2
150,386.4
152,388.5
154,390.7
156,392.8
158,394.9
160,397.1
162,399.2
164,401.4
166,403.5
168,405.6
170,407.7
172,409.9
174,412.0
176,414.1
178,416.2
180,418.4
182,420.5
184,422.6
186,424.7
188,426.8
190,428.9
192,431.0
194,433.1
196,435.2
198,437.3
200,439.4
202,441.5
204,443.6
206,445.7
208,447.8
210,449.9
212,452.0
214,454.1
216,456.2
218,458.2
220,460.3
222,462.4
224,464.5
226,466.5
228,468.6
230,470.7
232,472.8
234,474.8
236,476.9
238,479.0
240,481.0
242,483.1
244,485.1
246,487.2
248,489.2
250,491.3
252,493.4
254,495.4
256,497.5
258,499.5
260,501.5
262,503.6
264,505.6
266,507.7
268,509.7
270,511.7
272,513.8
274,515.8
276,517.8
278,519.9
280,521.9
282,523.9
284,525.9
286,527.9
288,529.9
290,531.9
292,533.9
294,535.9
296,537.9
298,539.9
300,541.9
302,543.9
304,545.8
306,547.8
308,549.7
310,551.7
312,553.6
314,555.5
316,557.4
318,559.3
320,561.2
322,563.1
324,565.0
326,566.8
328,568.7
330,570.5
332,572.3
334,574.1
336,575.9
338,577.6
340,579.4
342,581.1
344,582.8
346,584.5
348,586.1
350,587.8
352,589.4
354,591.0
356,592.6
358,594.2
360,595.7
362,597.3
364,598.8
366,600.3
368,601.8
370,603.2
372,604.7
374,606.1
376,607.6
378,609.0
380,610.4
382,611.9
384,613.3
386,614.8
388,616.2
390,617.7
392,619.1
394,620.6
396,622.1
398,623.6
400,625.2
402,626.8
404,628.4
406,630.0
408,631.7
410,633.5
412,635.3
414,637.1
416,639.0
418,641.0
420,643.1
422,645.3
424,647.5
426,649.9
428,652.4
430,655.0
432,657.8
434,660.8
436,664.0
438,667.5
440,671.3
442,675.6
444,680.4
446,686.0
448,692.6
450,701.0
452,712.7
454,733.4
456,761.9
458,808.7
460,827.2
462,838.1
464,845.6
466,851.2
468,855.6
470,859.1
472,862.1
474,864.6
476,866.8
478,868.8
480,870.5
482,872.1
484,873.5
486,874.7
488,875.9
490,877.0
492,878.0
494,879.0
496,879.8
498,880.6
500,881.4