Folder: matl-db/PMMA/Validation_Results/UMD-FSRI

File: UMD-FSRI_Gasification_q50_MLR_R3.csv
Time,MLR
[s],[g/m2/s]
0,0
2,0
4,0.0001
6,0.008
8,0.1159
10,0.5446
12,1.6259
14,2.1418
16,1.3797
18,1.2098
20,1.169
22,1.0307
24,1.0503
26,1.1933
28,1.516
30,1.9057
32,2.4759
34,3.4692
36,4.8579
38,5.7794
40,6.1855
42,7.8307
44,8.5793
46,9.6463
48,10.6823
50,10.8039
52,11.5542
54,11.2789
56,11.9119
58,11.9174
60,12.8892
62,13.0973
64,13.4262
66,13.0964
68,14.0688
70,14.0713
72,14.1956
74,14.2001
76,14.4261
78,15.6823
80,15.0155
82,15.5922
84,15.6696
86,15.6159
88,15.1886
90,15.2288
92,16.3905
94,15.9633
96,16.4493
98,16.2915
100,15.527
102,15.0963
104,17.1648
106,17.1301
108,16.3655
110,17.4673
112,17.4837
114,17.5308
116,17.9416
118,17.1113
120,16.7999
122,17.5954
124,17.9156
126,18.0217
128,18.6842
130,19.5307
132,18.5672
134,18.2619
136,17.7746
138,19.4858
140,18.8349
142,20.1124
144,18.7518
146,18.7181
148,18.1549
150,18.4905
152,19.4836
154,19.0161
156,20.773
158,19.6435
160,19.5396
162,18.9607
164,19.3833
166,20.0742
168,19.8645
170,20.7106
172,19.5307
174,19.2037
176,19.3856
178,21.7241
180,20.1038
182,20.0084
184,20.5516
186,19.9118
188,20.2084
190,21.3746
192,20.7438
194,20.8503
196,21.2993
198,20.5327
200,20.245
202,20.8183
204,21.4359
206,20.8496
208,20.2574
210,21.0989
212,20.6873
214,21.9827
216,21.2927
218,21.8454
220,22.3672
222,21.3372
224,21.9181
226,20.991
228,21.5905
230,21.3448
232,20.9604
234,22.7346
236,21.2207
238,21.0635
240,21.3735
242,22.741
244,22.9197
246,22.8494
248,22.2837
250,23.0849
252,24.363
254,22.3854
256,23.4326
258,23.7728
260,23.1635
262,24.1692
264,23.0116
266,22.9989
268,23.4849
270,24.3401
272,24.0205
274,24.1515
276,24.7739
278,24.5899
280,24.5717
282,24.8923
284,24.3156
286,24.5221
288,25.4737
290,25.6762
292,26.6095
294,25.7936
296,25.6615
298,26.0736
300,26.7583
302,26.8349
304,26.2944
306,27.2627
308,28.4719
310,27.133
312,28.0733
314,27.6989
316,27.3762
318,27.3816
320,28.0607
322,28.9423
324,30.1277
326,29.4161
328,29.7994
330,29.8954
332,30.1418
334,29.7986
336,30.2941
338,30.387
340,31.2501
342,31.4
344,31.4139
346,30.3943
348,30.1306
350,29.9628
352,29.7614
354,29.3034
356,27.1366
358,27.1996
360,23.2236
362,21.0131
364,18.7528
366,9.369
368,0
370,0
372,0
374,0
376,0
378,0
380,0
382,0
384,0
386,0
388,0
390,0
392,0
394,0
396,0
398,0
400,0
402,0
404,0
406,0
408,0
410,0
412,0
414,0
416,0
418,0
420,0
422,0
424,0
426,0
428,0
430,0
432,0
434,0
436,0
438,0
440,0
442,0
444,0
446,0
448,0
450,0

File: UMD-FSRI_Gasification_q50_MLR_R4.csv
Time,MLR
[s],[g/m2/s]
0,0
2,0
4,0.0002
6,0.008
8,0.0895
10,0.5313
12,1.7747
14,1.8739
16,1.3941
18,1.2179
20,1.091
22,1.0389
24,1.0479
26,1.2908
28,1.5364
30,1.9244
32,2.4904
34,3.7673
36,4.8237
38,5.6862
40,6.9787
42,8.3548
44,8.9624
46,9.1174
48,9.6347
50,11.2663
52,10.3351
54,11.9008
56,12.0255
58,12.4737
60,12.5198
62,13.0144
64,13.1607
66,13.9431
68,14.5267
70,14.3573
72,14.3112
74,15.813
76,14.0753
78,14.2419
80,15.0265
82,15.5854
84,16.3359
86,15.2744
88,15.634
90,16.2769
92,16.9232
94,15.0744
96,15.4768
98,16.7261
100,17.6049
102,15.999
104,15.6091
106,17.0253
108,17.4732
110,17.6642
112,17.0518
114,16.8283
116,17.2369
118,18.4802
120,17.916
122,17.9366
124,18.0032
126,18.1371
128,17.6709
130,19.3308
132,17.8181
134,18.6626
136,18.6355
138,19.8607
140,18.9597
142,18.8312
144,18.5221
146,19.2037
148,19.3459
150,19.9052
152,20.2253
154,19.0647
156,20.3633
158,20.1942
160,20.1527
162,19.0739
164,19.274
166,20.0701
168,19.6417
170,20.3212
172,20.0782
174,20.883
176,20.3977
178,21.0439
180,20.1974
182,20.1068
184,20.6099
186,21.4024
188,20.2234
190,20.2559
192,20.5194
194,20.9773
196,21.2647
198,21.5361
200,23.1085
202,20.2695
204,20.3121
206,21.5273
208,20.6754
210,21.4092
212,25.316
214,21.403
216,20.4193
218,21.0756
220,21.0424
222,20.7894
224,21.9643
226,21.9708
228,23.3526
230,21.5861
232,21.5485
234,22.0225
236,22.5614
238,23.496
240,23.098
242,23.8792
244,23.1015
246,22.2816
248,23.1351
250,24.2809
252,23.8882
254,23.9574
256,24.2022
258,23.8571
260,22.9197
262,24.5598
264,23.4768
266,23.94
268,25.5397
270,23.72
272,25.4318
274,25.1126
276,25.0782
278,26.1603
280,26.2867
282,25.904
284,27.7041
286,26.2825
288,25.9669
290,26.8478
292,27.4704
294,27.2124
296,27.5595
298,27.439
300,27.1714
302,27.2925
304,27.8655
306,28.9588
308,28.6319
310,29.438
312,29.9795
314,29.8175
316,29.8576
318,30.6469
320,30.2225
322,30.2326
324,30.9828
326,31.3608
328,30.9965
330,31.2821
332,31.2879
334,30.31
336,30.1106
338,29.9555
340,28.8639
342,28.128
344,26.8451
346,24.4418
348,21.7839
350,19.064
352,12.469
354,0
356,0
358,0
360,0
362,0
364,0
366,0
368,0
370,0
372,0
374,0
376,0
378,0
380,0
382,0
384,0
386,0
388,0
390,0
392,0
394,0
396,0
398,0
400,0
402,0
404,0
406,0
408,0
410,0
412,0
414,0
416,0
418,0
420,0
422,0
424,0
426,0
428,0
430,0
432,0
434,0
436,0
438,0
440,0
442,0
444,0
446,0
448,0
450,0

File: UMD-FSRI_Gasification_q50_MLR_R5.csv
Time,MLR
[s],[g/m2/s]
0,0.0000
2,0.0000
4,0.0004
6,0.0111
8,0.1067
10,0.6125
12,1.8189
14,2.0015
16,1.4294
18,1.1889
20,1.0563
22,1.1095
24,1.0510
26,1.1619
28,1.4101
30,1.9572
32,2.6935
34,3.7026
36,4.8838
38,5.8120
40,6.8930
42,7.2161
44,8.6938
46,9.1366
48,9.6574
50,10.3277
52,10.7870
54,12.2126
56,12.1012
58,11.9002
60,13.4381
62,13.6446
64,13.5336
66,13.1672
68,14.1026
70,13.3425
72,13.6783
74,14.4862
76,14.0611
78,15.5280
80,14.6843
82,15.3659
84,15.2358
86,15.1201
88,15.4752
90,14.7195
92,16.0312
94,15.7792
96,16.2743
98,16.3464
100,17.2036
102,16.5766
104,17.5452
106,17.6763
108,16.6376
110,16.6036
112,16.4391
114,17.3584
116,16.1365
118,16.9626
120,18.0476
122,17.3815
124,18.2736
126,18.1236
128,18.1216
130,18.0805
132,17.9418
134,18.9572
136,17.8167
138,18.6721
140,18.4244
142,18.4795
144,18.9183
146,18.8120
148,18.4917
150,18.5658
152,19.4280
154,19.4913
156,17.7406
158,19.7573
160,18.3281
162,18.9987
164,19.1295
166,19.0221
168,19.3397
170,18.9730
172,19.1008
174,19.7109
176,20.0654
178,20.9537
180,20.0392
182,20.4100
184,20.1641
186,20.8921
188,20.2016
190,20.0929
192,19.8687
194,20.8563
196,19.8202
198,19.8216
200,20.4683
202,19.6347
204,21.0196
206,21.1081
208,20.8326
210,21.3227
212,20.6060
214,21.2443
216,21.3099
218,22.2082
220,21.3362
222,20.4905
224,20.9662
226,20.3923
228,20.9602
230,22.4074
232,22.8024
234,21.7552
236,21.8844
238,20.7702
240,21.7654
242,22.2072
244,21.1662
246,22.3627
248,20.9557
250,21.0218
252,22.2765
254,21.9680
256,22.3913
258,21.3229
260,21.9405
262,22.7582
264,23.1125
266,21.3166
268,23.4038
270,24.3264
272,22.8017
274,22.7766
276,23.5008
278,24.8892
280,23.6108
282,22.3249
284,23.7558
286,24.0097
288,24.0640
290,23.9756
292,24.1497
294,24.5283
296,24.7525
298,24.6344
300,24.0072
302,25.1243
304,25.5681
306,24.5612
308,25.1362
310,25.1354
312,25.4271
314,24.6110
316,25.7056
318,25.4783
320,25.9429
322,26.9643
324,27.0928
326,27.9396
328,27.7200
330,27.7719
332,27.8246
334,29.0273
336,28.5531
338,29.0705
340,29.1490
342,27.8181
344,29.8433
346,30.0646
348,29.5751
350,30.7649
352,31.0008
354,29.7265
356,31.2447
358,30.3468
360,31.0721
362,31.0996
364,30.4777
366,30.6935
368,30.9566
370,29.7697
372,28.5837
374,27.9992
376,26.7860
378,22.6826
380,21.7188
382,20.1476
384,15.2312
386,0.0001
388,0.0000
390,0.0000
392,0.0000
394,0.0000
396,0.0000
398,0.0000
400,0.0000
402,0.0000
404,0.0000
406,0.0000
408,0.0000
410,0.0000
412,0.0000
414,0.0000
416,0.0000
418,0.0000
420,0.0000
422,0.0000
424,0.0000
426,0.0000
428,0.0000
430,0.0000
432,0.0000
434,0.0000
436,0.0000
438,0.0000
440,0.0000
442,0.0000
444,0.0000
446,0.0000
448,0.0000
450,0.0000

File: UMD-FSRI_Gasification_q50_Temp_R3.csv
Time,T_back
[s],[K]
0,293.00
2,293.00
4,293.00
6,293.00
8,293.00
10,293.02
12,293.06
14,293.16
16,293.33
18,293.61
20,294.01
22,294.52
24,295.17
26,295.93
28,296.82
30,297.83
32,298.94
34,300.15
36,301.45
38,302.84
40,304.30
42,305.83
44,307.42
46,309.07
48,310.76
50,312.50
52,314.27
54,316.07
56,317.89
58,319.74
60,321.61
62,323.49
64,325.39
66,327.29
68,329.20
70,331.12
72,333.04
74,334.96
76,336.88
78,338.80
80,340.72
82,342.63
84,344.54
86,346.45
88,348.34
90,350.24
92,352.12
94,354.01
96,355.88
98,357.75
100,359.60
102,361.46
104,363.30
106,365.14
108,366.97
110,368.79
112,370.60
114,372.41
116,374.20
118,375.99
120,377.76
122,379.53
124,381.29
126,383.04
128,384.79
130,386.53
132,388.30
134,390.05
136,391.77
138,393.50
140,395.21
142,396.92
144,398.63
146,400.33
148,402.03
150,403.73
152,405.43
154,407.13
156,408.82
158,410.51
160,412.20
162,413.87
164,415.55
166,417.22
168,418.89
170,420.55
172,422.22
174,423.88
176,425.55
178,427.21
180,428.87
182,430.53
184,432.19
186,433.84
188,435.50
190,437.15
192,438.81
194,440.47
196,442.12
198,443.78
200,445.44
202,447.10
204,448.77
206,450.44
208,452.11
210,453.79
212,455.46
214,457.13
216,458.80
218,460.48
220,462.17
222,463.87
224,465.57
226,467.27
228,468.98
230,470.70
232,472.45
234,474.23
236,476.03
238,477.88
240,479.73
242,481.60
244,483.47
246,485.37
248,487.30
250,489.27
252,491.27
254,493.31
256,495.39
258,497.48
260,499.57
262,501.66
264,503.76
266,505.89
268,508.11
270,510.32
272,512.55
274,514.82
276,517.08
278,519.33
280,521.61
282,524.13
284,526.45
286,528.77
288,531.64
290,533.85
292,536.23
294,538.65
296,541.13
298,543.59
300,546.10
302,548.67
304,551.39
306,554.36
308,556.93
310,559.78
312,562.48
314,565.18
316,568.35
318,571.08
320,574.08
322,576.90
324,580.37
326,583.73
328,586.64
330,589.45
332,592.11
334,596.46
336,599.33
338,602.46
340,605.74
342,611.63
344,614.83
346,620.91
348,622.34
350,626.96
352,632.08
354,635.20
356,641.64
358,644.99
360,652.32
362,664.12
364,670.75
366,676.03
368,674.64
370,687.55
372,693.54
374,716.49
376,702.71
378,718.38
380,734.94
382,733.59
384,755.38
386,756.78
388,775.32
390,777.51
392,764.88
394,798.52
396,808.86
398,810.00
400,809.04
402,808.26
404,808.06
406,809.04
408,808.27
410,808.30
412,808.41
414,826.27
416,824.78
418,823.73
420,822.95
422,822.37
424,821.93
426,821.59
428,821.33
430,821.12
432,820.97
434,820.84
436,820.75
438,820.67
440,820.61
442,820.56
444,820.52
446,820.49
448,820.47
450,820.45