Folder: matl-db/PMMA/Validation_Results/UMET

File: Model_MaCFP-PMMA_Gasification_q50_Mass_R3.csv
Time,Mass
[s],[g]
0,26.689
4,26.689
8,26.689
12,26.689
16,26.688
20,26.684
24,26.676
28,26.660
32,26.629
36,26.564
40,26.491
44,26.395
48,26.273
52,26.134
56,25.967
60,25.790
64,25.587
68,25.382
72,25.162
76,24.933
80,24.693
84,24.444
88,24.188
92,23.926
96,23.656
100,23.378
104,23.097
108,22.811
112,22.519
116,22.221
120,21.920
124,21.616
128,21.308
132,20.996
136,20.680
140,20.362
144,20.041
148,19.716
152,19.389
156,19.059
160,18.727
164,18.392
168,18.054
172,17.715
176,17.374
180,17.030
184,16.685
188,16.337
192,15.987
196,15.634
200,15.280
204,14.924
208,14.567
212,14.207
216,13.846
220,13.483
224,13.118
228,12.751
232,12.382
236,12.011
240,11.640
244,11.267
248,10.893
252,10.517
256,10.139
260,9.760
264,9.379
268,8.997
272,8.614
276,8.230
280,7.845
284,7.459
288,7.071
292,6.683
296,6.293
300,5.902
304,5.509
308,5.115
312,4.720
316,4.324
320,3.927
324,3.529
328,3.130
332,2.730
336,2.329
340,1.926
344,1.523
348,1.118
352,0.712
356,0.305
360,-0.103
364,-0.512
368,-0.922
372,-1.333
376,-1.746
380,-2.145
384,-2.256
388,-2.274
392,-2.280
396,-2.284
400,-2.286
404,-2.287
408,-2.288
412,-2.289
416,-2.289
420,-2.290
424,-2.290
428,-2.290
432,-2.291
436,-2.291
440,-2.291
444,-2.291
448,-2.291
452,-2.292
456,-2.292
460,-2.292
464,-2.292
468,-2.292
472,-2.292
476,-2.292
480,-2.292
3,25.643
7,25.643
11,25.643
15,25.642
19,25.640
23,25.633
27,25.620
31,25.593
35,25.552
39,25.496
43,25.416
47,25.321
51,25.192
55,25.058
59,24.897
63,24.719
67,24.521
71,24.304
75,24.077
79,23.837
83,23.583
87,23.317
91,23.048
95,22.770
99,22.484
103,22.191
107,21.896
111,21.596
115,21.290
119,20.982
123,20.670
127,20.355
131,20.036
135,19.714
139,19.390
143,19.062
147,18.732
151,18.400
155,18.065
159,17.728
163,17.388
167,17.047
171,16.703
175,16.357
179,16.008
183,15.657
187,15.305
191,14.950
195,14.593
199,14.235
203,13.874
207,13.512
211,13.147
215,12.780
219,12.412
223,12.042
227,11.671
231,11.298
235,10.923
239,10.546
243,10.167
247,9.787
251,9.407
255,9.025
259,8.641
263,8.257
267,7.871
271,7.483
275,7.094
279,6.704
283,6.312
287,5.919
291,5.525
295,5.129
299,4.733
303,4.336
307,3.937
311,3.537
315,3.136
319,2.734
323,2.330
327,1.925
331,1.519
335,1.112
339,0.703
343,0.294
347,-0.117
351,-0.528
355,-0.941
359,-1.355
363,-1.770
367,-2.185
371,-2.602
375,-3.019
379,-3.409
383,-3.514
387,-3.534
391,-3.541
395,-3.545
399,-3.547
403,-3.548
407,-3.549
411,-3.550
415,-3.550
419,-3.551
423,-3.551
427,-3.551
431,-3.551
435,-3.552
439,-3.552
443,-3.552
447,-3.552
451,-3.552
455,-3.553
459,-3.553
463,-3.553
467,-3.553
471,-3.553
475,-3.553
479,-3.553
480,-3.553

File: Model_MaCFP-PMMA_Gasification_q50_MLR_R4.csv
Time,MLR
[s],[g/m2/s]
0,0
2,7.59E-09
4,3.88E-06
6,6.66E-05
8,6.03E-04
10,0.003114187
12,0.0116564
14,0.0705559
16,0.0705559
18,0.244957
20,0.244957
22,0.585859
24,0.585859
26,1.11081
28,1.11081
30,2.66808
32,2.66808
34,2.66808
36,2.66808
38,5.20306
40,5.20306
42,5.20306
44,5.20306
46,8.3992
48,8.3992
50,8.3992
52,8.3992
54,8.3992
56,10.15
58,10.7215
60,11.2929
62,11.8644
64,12.6083
66,13.2386
68,13.869
70,14.4993
72,14.5711
74,15.0016
76,15.4321
78,15.8626
80,16.2931
82,16.7236
84,17.1541
86,17.5845
88,17.367
90,17.6564
92,17.9458
94,18.2352
96,18.5246
98,18.814
100,19.1033
102,18.9472
104,19.1205
106,19.2938
108,19.4671
110,19.6404
112,19.8137
114,19.987
116,20.1603
118,20.1134
120,20.2388
122,20.3642
124,20.4896
126,20.615
128,20.7404
130,20.8658
132,20.881
134,20.981
136,21.0811
138,21.1812
140,21.2813
142,21.3814
144,21.4815
146,21.5207
148,21.606
150,21.6913
152,21.7766
154,21.8619
156,21.9471
158,22.0324
160,22.0724
162,22.146
164,22.2196
166,22.2932
168,22.3668
170,22.4404
172,22.514
174,22.5876
176,22.6612
178,22.7348
180,22.8084
182,22.882
184,22.9556
186,23.0292
188,23.1029
190,23.1232
192,23.1902
194,23.2571
196,23.3241
198,23.391
200,23.458
202,23.525
204,23.5919
206,23.6589
208,23.7258
210,23.7928
212,23.8598
214,23.9267
216,23.9937
218,23.9937
220,24.0518
222,24.1098
224,24.1679
226,24.226
228,24.2841
230,24.3421
232,24.4002
234,24.4583
236,24.5164
238,24.5744
240,24.6325
242,24.6906
244,24.7487
246,24.8067
248,24.7645
250,24.8101
252,24.8558
254,24.9014
256,24.947
258,24.9927
260,25.0383
262,25.0839
264,25.1295
266,25.1752
268,25.2208
270,25.2664
272,25.312
274,25.3577
276,25.4033
278,25.4489
280,25.4946
282,25.5402
284,25.5858
286,25.6314
288,25.6771
290,25.7227
292,25.7683
294,25.814
296,25.7892
298,25.8293
300,25.8695
302,25.9096
304,25.9497
306,25.9899
308,26.03
310,26.0701
312,26.1103
314,26.1504
316,26.1905
318,26.2307
320,26.2708
322,26.3109
324,26.3511
326,26.3912
328,26.4314
330,26.4715
332,26.5116
334,26.5518
336,26.5919
338,26.632
340,26.6722
342,26.7123
344,26.7192
346,26.7568
348,26.7943
350,26.8319
352,26.8694
354,26.9069
356,26.9445
358,26.982
360,27.0196
362,27.0571
364,27.0604
366,27.0918
368,27.1214
370,27.1514
372,27.1814
374,27.2113
376,27.2413
378,27.2686
380,11.0337
382,3.854
384,2.01482
386,0.750693
388,0.372605
390,0.372605
392,0.216157
394,0.216157
396,0.14009
398,0.14009
400,0.0738752
402,0.0738752
404,0.0738752
406,0.0456291
408,0.0456291
410,0.0456291
412,0.0456291
414,0.0311398
416,0.0311398
418,0.0311398
420,0.0311398
422,0.017507
424,0.017507
426,0.017507
428,0.017507
430,0.017507
432,0.017507
434,0.017507
436,0.0112315
438,0.0112315
440,0.0112315
442,0.0112315
444,0.0112315
446,0.0112315
448,0.0112315
450,0.00773937
452,0.00773937
454,0.00773937
456,0.00773937
458,0.00773937
460,0.00773937
462,0.00773937
464,0.004033319
466,0.004033319
468,0.004033319
470,0.004033319
472,0.004033319
474,0.004033319
476,0.004033319
478,0.004033319
480,0.004033319

File: UMET_Gasification_q50_Mass_R4.csv
Time,Mass
[s],[g]
0,25.643
2,25.643
4,25.643
6,25.643
8,25.643
10,25.643
12,25.643
14,25.643
16,25.642
18,25.641
20,25.639
22,25.635
24,25.631
26,25.625
28,25.616
30,25.603
32,25.582
34,25.562
36,25.541
38,25.516
40,25.476
42,25.436
44,25.396
46,25.353
48,25.288
50,25.224
52,25.159
54,25.095
56,25.019
58,24.939
60,24.855
62,24.766
64,24.672
66,24.572
68,24.468
70,24.359
72,24.248
74,24.135
76,24.018
78,23.898
80,23.775
82,23.648
84,23.518
86,23.385
88,23.250
90,23.116
92,22.979
94,22.840
96,22.699
98,22.556
100,22.411
102,22.264
104,22.117
106,21.970
108,21.821
110,21.671
112,21.520
114,21.367
116,21.213
118,21.059
120,20.904
122,20.748
124,20.592
126,20.434
128,20.275
130,20.116
132,19.956
134,19.795
136,19.633
138,19.471
140,19.308
142,19.145
144,18.980
146,18.815
148,18.650
150,18.483
152,18.317
154,18.149
156,17.981
158,17.812
160,17.643
162,17.473
164,17.303
166,17.132
168,16.961
170,16.789
172,16.616
174,16.443
176,16.270
178,16.095
180,15.921
182,15.745
184,15.569
186,15.393
188,15.216
190,15.039
192,14.861
194,14.683
196,14.504
198,14.325
200,14.145
202,13.965
204,13.784
206,13.603
208,13.421
210,13.238
212,13.055
214,12.872
216,12.688
218,12.504
220,12.320
222,12.135
224,11.949
226,11.764
228,11.578
230,11.391
232,11.204
234,11.016
236,10.829
238,10.640
240,10.451
242,10.262
244,10.072
246,9.882
248,9.692
250,9.502
252,9.311
254,9.120
256,8.929
258,8.737
260,8.545
262,8.353
264,8.160
266,7.967
268,7.774
270,7.580
272,7.386
274,7.192
276,6.997
278,6.802
280,6.606
282,6.410
284,6.214
286,6.018
288,5.821
290,5.624
292,5.426
294,5.228
296,5.030
298,4.832
300,4.634
302,4.435
304,4.236
306,4.037
308,3.837
310,3.637
312,3.437
314,3.236
316,3.035
318,2.834
320,2.633
322,2.431
324,2.229
326,2.027
328,1.824
330,1.621
332,1.418
334,1.214
336,1.010
338,0.806
340,0.601
342,0.396
344,0.191
346,-0.014
348,-0.219
350,-0.425
352,-0.631
354,-0.838
356,-1.044
358,-1.251
360,-1.458
362,-1.666
364,-1.874
366,-2.081
368,-2.290
370,-2.498
372,-2.706
374,-2.915
376,-3.124
378,-3.333
380,-3.462
382,-3.504
384,-3.522
386,-3.531
388,-3.537
390,-3.540
392,-3.542
394,-3.544
396,-3.545
398,-3.546
400,-3.547
402,-3.548
404,-3.548
406,-3.549
408,-3.549
410,-3.549
412,-3.550
414,-3.550
416,-3.550
418,-3.551
420,-3.551
422,-3.551
424,-3.551
426,-3.551
428,-3.551
430,-3.551
432,-3.552
434,-3.552
436,-3.552
438,-3.552
440,-3.552
442,-3.552
444,-3.552
446,-3.552
448,-3.552
450,-3.552
452,-3.552
454,-3.553
456,-3.553
458,-3.553
460,-3.553
462,-3.553
464,-3.553
466,-3.553
468,-3.553
470,-3.553
472,-3.553
474,-3.553
476,-3.553
478,-3.553
480,-3.553

File: UMET_Gasification_q50_Mass_R5.csv
Time,Mass
[s],[g]
0,28.11
2,28.11
4,28.11
6,28.11
8,28.11
10,28.11
12,28.11
14,28.11
16,28.11
18,28.11
20,28.11
22,28.11
24,28.10
26,28.09
28,28.09
30,28.07
32,28.06
34,28.03
36,27.99
38,27.96
40,27.92
42,27.88
44,27.83
46,27.77
48,27.70
50,27.64
52,27.57
54,27.49
56,27.40
58,27.32
60,27.23
62,27.13
64,27.03
66,26.92
68,26.82
70,26.71
72,26.60
74,26.49
76,26.38
78,26.26
80,26.14
82,26.02
84,25.89
86,25.77
88,25.64
90,25.51
92,25.38
94,25.25
96,25.11
98,24.98
100,24.84
102,24.70
104,24.56
106,24.42
108,24.28
110,24.13
112,23.99
114,23.84
116,23.70
118,23.55
120,23.40
122,23.25
124,23.10
126,22.95
128,22.79
130,22.64
132,22.49
134,22.33
136,22.17
138,22.02
140,21.86
142,21.70
144,21.54
146,21.38
148,21.22
150,21.06
152,20.90
154,20.74
156,20.57
158,20.41
160,20.24
162,20.08
164,19.91
166,19.75
168,19.58
170,19.41
172,19.24
174,19.08
176,18.91
178,18.74
180,18.57
182,18.40
184,18.23
186,18.05
188,17.88
190,17.71
192,17.54
194,17.36
196,17.19
198,17.01
200,16.84
202,16.66
204,16.49
206,16.31
208,16.14
210,15.96
212,15.78
214,15.60
216,15.43
218,15.25
220,15.07
222,14.89
224,14.71
226,14.53
228,14.35
230,14.17
232,13.99
234,13.81
236,13.62
238,13.44
240,13.26
242,13.07
244,12.89
246,12.71
248,12.52
250,12.34
252,12.15
254,11.97
256,11.78
258,11.60
260,11.41
262,11.22
264,11.04
266,10.85
268,10.66
270,10.48
272,10.29
274,10.10
276,9.91
278,9.72
280,9.53
282,9.34
284,9.15
286,8.96
288,8.77
290,8.58
292,8.39
294,8.20
296,8.01
298,7.82
300,7.63
302,7.43
304,7.24
306,7.05
308,6.85
310,6.66
312,6.47
314,6.27
316,6.08
318,5.89
320,5.69
322,5.50
324,5.30
326,5.10
328,4.91
330,4.71
332,4.52
334,4.32
336,4.12
338,3.93
340,3.73
342,3.53
344,3.33
346,3.13
348,2.94
350,2.74
352,2.54
354,2.34
356,2.14
358,1.94
360,1.74
362,1.54
364,1.34
366,1.14
368,0.94
370,0.74
372,0.54
374,0.34
376,0.14
378,-0.07
380,-0.27
382,-0.47
384,-0.67
386,-0.88
388,-1.08
390,-1.28
392,-1.49
394,-1.69
396,-1.89
398,-2.10
400,-2.30
402,-2.51
404,-2.71
406,-2.90
408,-3.02
410,-3.11
412,-3.15
414,-3.16
416,-3.17
418,-3.17
420,-3.17
422,-3.18
424,-3.18
426,-3.18
428,-3.18
430,-3.18
432,-3.18
434,-3.18
436,-3.18
438,-3.18
440,-3.18
442,-3.18
444,-3.18
446,-3.18
448,-3.18
450,-3.18
452,-3.18
454,-3.18
456,-3.18
458,-3.18
460,-3.18
462,-3.18
464,-3.18
466,-3.18
468,-3.18
470,-3.18
472,-3.18
474,-3.18
476,-3.18
478,-3.18
480,-3.18

File: UMET_Gasification_q50_MLR_R3.csv
Time,MLR
[s],[g/m2/s]
0,0
2,5.17E-09
4,2.66E-06
6,5.60E-05
8,7.71E-04
10,0.006861928
12,0.0235204
14,0.0235204
16,0.130488
18,0.130488
20,0.441042
22,0.441042
24,1.04814
26,1.04814
28,1.04814
30,2.00475
32,2.00475
34,4.75283
36,4.75283
38,4.75283
40,4.75283
42,4.75283
44,7.94169
46,7.94169
48,7.94169
50,7.94169
52,10.8982
54,10.8982
56,10.8982
58,10.8982
60,13.2443
62,13.2443
64,13.2443
66,13.2443
68,13.9979
70,14.3078
72,14.6178
74,14.9278
76,15.2754
78,15.6023
80,15.9292
82,16.2561
84,16.583
86,16.6406
88,16.8781
90,17.1156
92,17.3532
94,17.5907
96,17.8282
98,18.0657
100,18.3032
102,18.2819
104,18.4644
106,18.6468
108,18.8293
110,19.0117
112,19.1941
114,19.3766
116,19.559
118,19.5364
120,19.671
122,19.8055
124,19.9401
126,20.0746
128,20.2092
130,20.3437
132,20.4783
134,20.6128
136,20.6071
138,20.7128
140,20.8185
142,20.9242
144,21.0299
146,21.1356
148,21.2413
150,21.347
152,21.3793
154,21.4684
156,21.5576
158,21.6467
160,21.7359
162,21.8251
164,21.9142
166,22.0034
168,22.0926
170,22.0919
172,22.1632
174,22.2345
176,22.3057
178,22.377
180,22.4483
182,22.5196
184,22.5909
186,22.6622
188,22.7335
190,22.8048
192,22.876
194,22.9473
196,23.0186
198,23.0899
200,23.1612
202,23.2325
204,23.2202
206,23.2826
208,23.345
210,23.4074
212,23.4698
214,23.5322
216,23.5946
218,23.657
220,23.7194
222,23.7818
224,23.8442
226,23.9065
228,23.9689
230,24.0313
232,24.0937
234,24.1561
236,24.1313
238,24.1835
240,24.2357
242,24.2879
244,24.3401
246,24.3923
248,24.4445
250,24.4967
252,24.5489
254,24.6011
256,24.6533
258,24.7055
260,24.7577
262,24.8099
264,24.8621
266,24.9143
268,24.9665
270,24.9178
272,24.9584
274,24.9991
276,25.0397
278,25.0804
280,25.121
282,25.1616
284,25.2023
286,25.2429
288,25.2835
290,25.3242
292,25.3648
294,25.4055
296,25.4461
298,25.4867
300,25.5274
302,25.568
304,25.6086
306,25.6493
308,25.6899
310,25.7306
312,25.7712
314,25.8118
316,25.8525
318,25.8478
320,25.8847
322,25.9217
324,25.9586
326,25.9956
328,26.0325
330,26.0695
332,26.1065
334,26.1434
336,26.1804
338,26.2173
340,26.2543
342,26.2912
344,26.3282
346,26.3651
348,26.4021
350,26.439
352,26.476
354,26.5129
356,26.5499
358,26.5869
360,26.6238
362,26.6608
364,26.6977
366,26.7199
368,26.7557
370,26.7915
372,26.8203
374,26.8526
376,26.8849
378,26.9148
380,18.4146
382,3.25692
384,1.66429
386,0.991057
388,0.652384
390,0.347593
392,0.347593
394,0.213076
396,0.143001
398,0.143001
400,0.0775054
402,0.0775054
404,0.0775054
406,0.0775054
408,0.0480369
410,0.0480369
412,0.0480369
414,0.0325949
416,0.0325949
418,0.0325949
420,0.0325949
422,0.0181113
424,0.0181113
426,0.0181113
428,0.0181113
430,0.0181113
432,0.0181113
434,0.0181113
436,0.0116033
438,0.0116033
440,0.0116033
442,0.0116033
444,0.0116033
446,0.0116033
448,0.0116033
450,0.008096265
452,0.008096265
454,0.008096265
456,0.008096265
458,0.008096265
460,0.008096265
462,0.008096265
464,0.004450168
466,0.004450168
468,0.004450168
470,0.004450168
472,0.004450168
474,0.004450168
476,0.004450168
478,0.004450168
480,0.004450168

File: UMET_Gasification_q50_MLR_R5.csv
Time,MLR
[s],[g/m2/s]
0,0
2,3.87E-09
4,2.13E-06
6,4.71E-05
8,6.36E-04
10,0.006169525
12,0.021166
14,0.021166
16,0.123878
18,0.123878
20,0.436475
22,0.436475
24,1.06501
26,1.06501
28,1.06501
30,2.0664
32,2.0664
34,4.88122
36,4.88122
38,4.88122
40,4.88122
42,4.88122
44,8.09387
46,8.09387
48,8.09387
50,8.09387
52,11.0021
54,11.0021
56,11.0021
58,11.0021
60,13.3084
62,13.3084
64,13.3084
66,13.3084
68,13.3084
70,14.1997
72,14.4989
74,14.798
76,15.0971
78,15.4344
80,15.7475
82,16.0607
84,16.3739
86,16.4741
88,16.7
90,16.9259
92,17.1518
94,17.3777
96,17.6036
98,17.8295
100,18.0554
102,18.2813
104,18.2438
106,18.4174
108,18.591
110,18.7646
112,18.9382
114,19.1118
116,19.2854
118,19.459
120,19.4286
122,19.5568
124,19.685
126,19.8133
128,19.9415
130,20.0698
132,20.198
134,20.3262
136,20.4545
138,20.4571
140,20.56
142,20.6629
144,20.7658
146,20.8688
148,20.9717
150,21.0746
152,21.1775
154,21.2078
156,21.2943
158,21.3808
160,21.4673
162,21.5538
164,21.6403
166,21.7268
168,21.8133
170,21.8998
172,21.9195
174,21.9924
176,22.0652
178,22.138
180,22.2108
182,22.2837
184,22.3565
186,22.4293
188,22.4381
190,22.4962
192,22.5543
194,22.6124
196,22.6705
198,22.7285
200,22.7866
202,22.8447
204,22.9028
206,22.9609
208,23.019
210,23.0771
212,23.1351
214,23.1932
216,23.2513
218,23.3094
220,23.3675
222,23.4256
224,23.4268
226,23.479
228,23.5311
230,23.5832
232,23.6353
234,23.6875
236,23.7396
238,23.7917
240,23.8439
242,23.896
244,23.9481
246,24.0002
248,24.0524
250,24.1045
252,24.1566
254,24.2087
256,24.2609
258,24.2056
260,24.2464
262,24.2871
264,24.3279
266,24.3687
268,24.4094
270,24.4502
272,24.491
274,24.5317
276,24.5725
278,24.6133
280,24.6541
282,24.6948
284,24.7356
286,24.7764
288,24.8171
290,24.8579
292,24.8987
294,24.9394
296,24.9802
298,25.021
300,25.0618
302,25.1025
304,25.1433
306,25.1263
308,25.1626
310,25.1989
312,25.2352
314,25.2715
316,25.3078
318,25.3441
320,25.3804
322,25.4167
324,25.453
326,25.4893
328,25.5256
330,25.5619
332,25.5982
334,25.6345
336,25.6707
338,25.707
340,25.7433
342,25.7796
344,25.8159
346,25.8522
348,25.8885
350,25.9248
352,25.9611
354,25.9343
356,25.9657
358,25.9971
360,26.0286
362,26.06
364,26.0914
366,26.1228
368,26.1542
370,26.1856
372,26.217
374,26.2485
376,26.2799
378,26.3113
380,26.3427
382,26.3741
384,26.4055
386,26.4369
388,26.4683
390,26.4998
392,26.5312
394,26.5626
396,26.594
398,26.6254
400,26.6568
402,26.6892
404,26.7207
406,18.5474
408,13.426
410,8.30454
412,3.18309
414,0.748626
416,0.748626
418,0.348356
420,0.348356
422,0.197518
424,0.197518
426,0.125841
428,0.125841
430,0.0637556
432,0.0637556
434,0.0637556
436,0.0376572
438,0.0376572
440,0.0376572
442,0.0376572
444,0.02463076
446,0.02463076
448,0.02463076
450,0.02463076
452,0.01303647
454,0.01303647
456,0.01303647
458,0.01303647
460,0.01303647
462,0.01303647
464,0.01303647
466,0.01303647
468,0.008113443
470,0.008113443
472,0.008113443
474,0.008113443
476,0.008113443
478,0.008113443
480,0.008113443

File: UMET_Gasification_q50_Temp_R3.csv
Time,T_back
[s],[K]
0,290.00
2,291.58
4,292.70
6,293.60
8,294.06
10,294.33
12,294.58
14,294.84
16,295.51
18,296.19
20,297.12
22,298.22
24,299.43
26,300.94
28,302.46
30,304.18
32,305.92
34,307.79
36,309.76
38,311.73
40,313.70
42,315.67
44,317.64
46,319.61
48,321.59
50,323.56
52,325.52
54,327.40
56,329.28
58,331.17
60,333.05
62,334.92
64,336.75
66,338.56
68,340.36
70,342.15
72,343.88
74,345.57
76,347.24
78,348.87
80,350.46
82,352.02
84,353.54
86,355.02
88,356.47
90,357.88
92,359.26
94,360.60
96,361.91
98,363.18
100,364.43
102,365.65
104,366.85
106,368.01
108,369.14
110,370.24
112,371.31
114,372.35
116,373.36
118,374.36
120,375.43
122,376.49
124,377.54
126,378.58
128,379.61
130,380.63
132,381.64
134,382.65
136,383.64
138,384.67
140,385.69
142,386.72
144,387.75
146,388.77
148,389.80
150,390.82
152,391.84
154,392.86
156,393.87
158,394.87
160,395.87
162,396.87
164,397.86
166,398.85
168,399.84
170,400.83
172,401.79
174,402.74
176,403.69
178,404.63
180,405.57
182,406.49
184,407.41
186,408.33
188,409.23
190,410.13
192,411.02
194,411.90
196,412.78
198,413.65
200,414.51
202,415.37
204,416.21
206,417.06
208,417.89
210,418.72
212,419.55
214,420.36
216,421.17
218,421.98
220,422.77
222,423.56
224,424.35
226,425.12
228,425.89
230,426.65
232,427.41
234,428.16
236,428.90
238,429.64
240,430.38
242,431.12
244,431.85
246,432.57
248,433.29
250,434.01
252,434.72
254,435.42
256,436.12
258,436.82
260,437.51
262,438.19
264,438.87
266,439.54
268,440.21
270,440.87
272,441.53
274,442.18
276,442.83
278,443.47
280,444.10
282,444.73
284,445.36
286,445.98
288,446.61
290,447.23
292,447.85
294,448.46
296,449.07
298,449.68
300,450.28
302,450.88
304,451.47
306,452.06
308,452.65
310,453.23
312,453.81
314,454.38
316,454.95
318,455.51
320,456.07
322,456.63
324,457.18
326,457.72
328,458.27
330,458.80
332,459.34
334,459.87
336,460.40
338,460.93
340,461.45
342,461.97
344,462.48
346,463.00
348,463.50
350,464.01
352,464.51
354,465.00
356,465.50
358,465.99
360,466.49
362,466.97
364,467.46
366,467.94
368,468.42
370,468.90
372,469.37
374,469.84
376,470.31
378,470.78
380,470.32
382,469.36
384,469.24
386,469.35
388,469.39
390,469.37
392,469.37
394,469.44
396,469.62
398,469.89
400,470.26
402,470.73
404,471.30
406,471.93
408,472.65
410,473.40
412,474.14
414,474.90
416,475.69
418,476.50
420,477.32
422,478.08
424,478.84
426,479.59
428,480.34
430,481.08
432,481.77
434,482.41
436,483.01
438,483.59
440,484.13
442,484.64
444,485.12
446,485.58
448,486.00
450,486.39
452,486.75
454,487.09
456,487.41
458,487.69
460,487.95
462,488.19
464,488.39
466,488.57
468,488.71
470,488.83
472,488.92
474,488.99
476,489.05
478,489.09
480,489.12

File: UMET_Gasification_q50_Temp_R4.csv
Time,T_back
[s],[K]
0,290.00
2,291.49
4,292.56
6,293.44
8,293.88
10,294.15
12,294.40
14,294.68
16,295.38
18,296.09
20,297.06
22,298.19
24,299.42
26,300.96
28,302.51
30,304.25
32,306.02
34,307.92
36,309.91
38,311.91
40,313.91
42,315.90
44,317.89
46,319.88
48,321.86
50,323.85
52,325.82
54,327.72
56,329.62
58,331.52
60,333.42
62,335.30
64,337.15
66,338.98
68,340.80
70,342.61
72,344.35
74,346.05
76,347.71
78,349.33
80,350.92
82,352.47
84,353.99
86,355.48
88,356.93
90,358.34
92,359.72
94,361.07
96,362.38
98,363.65
100,364.90
102,366.12
104,367.31
106,368.46
108,369.58
110,370.67
112,371.73
114,372.76
116,373.77
118,374.85
120,375.91
122,376.97
124,378.01
126,379.05
128,380.08
130,381.10
132,382.11
134,383.14
136,384.17
138,385.21
140,386.25
142,387.29
144,388.32
146,389.36
148,390.39
150,391.42
152,392.44
154,393.46
156,394.48
158,395.49
160,396.50
162,397.51
164,398.52
166,399.52
168,400.50
170,401.47
172,402.44
174,403.40
176,404.35
178,405.29
180,406.23
182,407.16
184,408.08
186,409.00
188,409.91
190,410.81
192,411.70
194,412.59
196,413.47
198,414.35
200,415.21
202,416.07
204,416.93
206,417.78
208,418.62
210,419.45
212,420.28
214,421.10
216,421.92
218,422.72
220,423.52
222,424.32
224,425.11
226,425.89
228,426.66
230,427.43
232,428.19
234,428.94
236,429.70
238,430.45
240,431.20
242,431.94
244,432.67
246,433.41
248,434.13
250,434.85
252,435.56
254,436.27
256,436.98
258,437.67
260,438.37
262,439.05
264,439.73
266,440.41
268,441.08
270,441.75
272,442.40
274,443.06
276,443.71
278,444.35
280,444.99
282,445.62
284,446.26
286,446.89
288,447.53
290,448.15
292,448.77
294,449.39
296,450.00
298,450.61
300,451.22
302,451.82
304,452.41
306,453.00
308,453.59
310,454.17
312,454.75
314,455.32
316,455.89
318,456.46
320,457.02
322,457.57
324,458.12
326,458.67
328,459.21
330,459.75
332,460.30
334,460.84
336,461.38
338,461.92
340,462.45
342,462.98
344,463.50
346,464.02
348,464.54
350,465.06
352,465.57
354,466.08
356,466.58
358,467.08
360,467.58
362,468.08
364,468.57
366,469.05
368,469.54
370,470.02
372,470.50
374,470.97
376,471.44
378,471.91
380,472.14
382,470.72
384,470.70
386,470.79
388,470.86
390,470.93
392,471.07
394,471.31
396,471.66
398,472.02
400,472.47
402,473.01
404,473.55
406,474.15
408,474.79
410,475.44
412,476.09
414,476.74
416,477.39
418,478.04
420,478.69
422,479.34
424,479.91
426,480.46
428,481.01
430,481.56
432,482.12
434,482.67
436,483.08
438,483.50
440,483.92
442,484.33
444,484.75
446,485.12
448,485.29
450,485.46
452,485.62
454,485.79
456,485.96
458,486.12
460,486.29
462,486.45
464,486.62
466,486.79
468,486.95
470,487.03
472,487.01
474,486.98
476,486.96
478,486.94
480,486.91

File: UMET_Gasification_q50_Temp_R5.csv
Time,T_back
[s],[K]
0,290.00
2,291.74
4,292.95
6,293.88
8,294.35
10,294.64
12,294.86
14,295.07
16,295.56
18,296.22
20,296.94
22,298.00
24,299.06
26,300.40
28,301.87
30,303.38
32,305.07
34,306.75
36,308.58
38,310.46
40,312.33
42,314.21
44,316.08
46,317.95
48,319.83
50,321.70
52,323.57
54,325.41
56,327.23
58,329.04
60,330.86
62,332.68
64,334.38
66,336.08
68,337.79
70,339.49
72,341.12
74,342.69
76,344.27
78,345.84
80,347.41
82,348.91
84,350.38
86,351.84
88,353.26
90,354.66
92,356.03
94,357.37
96,358.69
98,359.98
100,361.23
102,362.46
104,363.66
106,364.82
108,365.96
110,367.07
112,368.15
114,369.20
116,370.24
118,371.29
120,372.31
122,373.32
124,374.31
126,375.28
128,376.24
130,377.17
132,378.08
134,379.02
136,379.98
138,380.94
140,381.90
142,382.85
144,383.80
146,384.75
148,385.69
150,386.63
152,387.58
154,388.54
156,389.49
158,390.45
160,391.41
162,392.37
164,393.33
166,394.28
168,395.24
170,396.19
172,397.12
174,398.05
176,398.98
178,399.90
180,400.82
182,401.74
184,402.65
186,403.56
188,404.45
190,405.33
192,406.21
194,407.08
196,407.94
198,408.79
200,409.64
202,410.48
204,411.32
206,412.14
208,412.96
210,413.78
212,414.58
214,415.38
216,416.18
218,416.96
220,417.74
222,418.52
224,419.29
226,420.06
228,420.82
230,421.58
232,422.33
234,423.08
236,423.82
238,424.55
240,425.28
242,426.00
244,426.71
246,427.42
248,428.13
250,428.83
252,429.52
254,430.20
256,430.88
258,431.56
260,432.25
262,432.92
264,433.59
266,434.26
268,434.92
270,435.58
272,436.23
274,436.88
276,437.53
278,438.17
280,438.80
282,439.43
284,440.06
286,440.68
288,441.29
290,441.90
292,442.51
294,443.11
296,443.71
298,444.30
300,444.89
302,445.48
304,446.06
306,446.64
308,447.22
310,447.79
312,448.37
314,448.94
316,449.50
318,450.07
320,450.62
322,451.18
324,451.73
326,452.28
328,452.82
330,453.36
332,453.90
334,454.43
336,454.96
338,455.48
340,456.00
342,456.52
344,457.03
346,457.54
348,458.05
350,458.55
352,459.05
354,459.55
356,460.05
358,460.55
360,461.04
362,461.54
364,462.02
366,462.51
368,462.99
370,463.47
372,463.95
374,464.43
376,464.90
378,465.36
380,465.83
382,466.29
384,466.75
386,467.21
388,467.66
390,468.11
392,468.56
394,469.00
396,469.45
398,469.88
400,470.32
402,470.75
404,471.18
406,471.61
408,471.68
410,471.46
412,470.99
414,470.37
416,470.25
418,470.16
420,470.21
422,470.30
424,470.48
426,470.71
428,471.04
430,471.45
432,471.98
434,472.51
436,473.04
438,473.63
440,474.26
442,474.89
444,475.52
446,476.16
448,476.81
450,477.45
452,478.10
454,478.63
456,479.15
458,479.67
460,480.19
462,480.71
464,481.23
466,481.75
468,482.23
470,482.58
472,482.94
474,483.29
476,483.64
478,483.99
480,484.34